File: Courses/Advance project (MSE)/Mo2Ti2C3/XRD/data/Mo2Ti2C3-daya.dat
5	2450
5.06	2538.54
5.12	2542.37
5.18	1957.865
5.24	2537.47
5.3	2312.69
5.36	2055.65
5.42	2312.24
5.48	2377.52
5.54	2338.65
5.6	2389.01
5.66	2449.885
5.72	2372.19
5.78	2622.13
5.84	2388.73
5.9	2472.695
5.96	2397.675
6.02	2519.815
6.08	2192.83
6.14	2359.63
6.2	2648.15
6.26	2550
6.32	2564.34
6.38	2421.165
6.44	2621.595
6.5	2577.27
6.56	2339.44
6.62	2671.03
6.68	2403.32
6.74	2527.1
6.8	2412.315
6.86	2594.83
6.92	2760.3
6.98	3152.55
7.04	2857.82
7.1	2979.85
7.16	3684.83
7.22	3866.34
7.28	4405.1
7.34	5908.11
7.4	8220.29
7.46	14093.1
7.52	25289.76
7.58	50953.6
7.64	89466.2
7.7	78014.5
7.76	24825.7
7.82	9468.01
7.88	6797.715
7.94	5314.4
8	4693.915
8.06	4158.46
8.12	3584.865
8.18	3795.45
8.24	3413.215
8.3	3230.1
8.36	3283.33
8.42	3071.18
8.48	2796.79
8.54	3000
8.6	2717.72
8.66	2902.53
8.72	2809.84
8.78	2730.39
8.84	2659.21
8.9	2719.1
8.96	2669.2
9.02	2558
9.08	2495.71
9.14	2500.04
9.2	2383.77
9.26	2508.47
9.32	2382.94
9.38	2423.82
9.44	2401.29
9.5	2377.81
9.56	2333.33
9.62	2361.51
9.68	2186.815
9.74	2229.46
9.8	2676.17
9.86	2540.22
9.92	2525.845
9.98	2277.8
10.04	2479.655
10.1	2500
10.16	2451.38
10.22	2508.36
10.28	2408.12
10.34	2471.9
10.4	2488.21
10.46	2379.9
10.52	2292.86
10.58	2566.025
10.64	2733.33
10.7	2169.76
10.76	2279.7
10.82	2560.22
10.88	2589.7
10.94	2350
11	2110.23
11.06	2430.75
11.12	2390.89
11.18	2280
11.24	2575.555
11.3	2348.235
11.36	2598.035
11.42	2354.845
11.48	2285.95
11.54	2402.81
11.6	2325.13
11.66	2608.58
11.72	2334.52
11.78	2275.775
11.84	2375.6
11.9	2570.995
11.96	2229.97
12.02	2529.49
12.08	2566.67
12.14	2535.76
12.2	2431
12.26	2574.15
12.32	2420.3
12.38	2456.64
12.44	2569.56
12.5	2200
12.56	2408.36
12.62	2539.48
12.68	2552.62
12.74	2507.86
12.8	2210.25
12.86	2674.19
12.92	2631.75
12.98	2197.18
13.04	2439.49
13.1	2286.75
13.16	2373.31
13.22	2386.135
13.28	2180.175
13.34	2569.52
13.4	2172.37
13.46	2644.21
13.52	2462.63
13.58	2322.1
13.64	2158.3
13.7	2444.92
13.76	2662.245
13.82	2434.51
13.88	2519.72
13.94	2370.265
14	2307.305
14.06	2471.36
14.12	2420.475
14.18	2514.855
14.24	2609.785
14.3	2302.44
14.36	2534.1
14.42	2314.335
14.48	2463.97
14.54	2403.14
14.6	2686.815
14.66	2800
14.72	2306.32
14.78	2831.14
14.84	2902.735
14.9	2616.67
14.96	2836.58
15.02	3478.64
15.08	3819.65
15.14	4786.045
15.2	7454.08
15.26	11217
15.32	8583.165
15.38	4284.79
15.44	3132.96
15.5	3164.53
15.56	2814.75
15.62	2551.45
15.68	2506.11
15.74	2564.62
15.8	2566.275
15.86	2372.395
15.92	2449.51
15.98	2298.92
16.04	2781.56
16.1	2377.555
16.16	2615.975
16.22	2161.9
16.28	2507.925
16.34	2583.33
16.4	2476.16
16.46	2520.06
16.52	2184.66
16.58	2600.74
16.64	2394.485
16.7	2291.42
16.76	2179.71
16.82	2217.925
16.88	2392.13
16.94	2226.21
17	2622
17.06	2415.705
17.12	2425.8
17.18	2318.24
17.24	2331.705
17.3	2424.93
17.36	2645.86
17.42	2193.43
17.48	2205.425
17.54	2481.44
17.6	2369.695
17.66	2421.97
17.72	2043.61
17.78	2175.535
17.84	1952.81
17.9	2391.07
17.96	2425.76
18.02	2167.04
18.08	2366.675
18.14	2158.095
18.2	2258.415
18.26	2351.385
18.32	2411.955
18.38	2389.37
18.44	2146.5
18.5	2222.14
18.56	2422.31
18.62	2416.06
18.68	2153.045
18.74	2444.46
18.8	2171.325
18.86	2538.385
18.92	2091.06
18.98	2526.9
19.04	2364.325
19.1	2360.04
19.16	2406
19.22	2275.91
19.28	2133.33
19.34	2173.775
19.4	2443.605
19.46	2161.005
19.52	2337.06
19.58	2215.13
19.64	2050
19.7	2179.435
19.76	2295.2
19.82	2129.935
19.88	2078.88
19.94	2103.98
20	2183.33
20.06	2091.82
20.12	1951.63
20.18	2155.915
20.24	2249.37
20.3	2015.42
20.36	2207.49
20.42	2107.385
20.48	2104.23
20.54	2061.605
20.6	2252.415
20.66	2100.95
20.72	2013.78
20.78	2238.805
20.84	2209.95
20.9	2119.45
20.96	2030.75
21.02	2060.37
21.08	2182.4
21.14	2068.935
21.2	2140.43
21.26	2296.17
21.32	2066.885
21.38	1877.595
21.44	2283.05
21.5	2044.34
21.56	2084.335
21.62	1914.29
21.68	1892.43
21.74	2348.96
21.8	2054.74
21.86	2237.55
21.92	2179.1
21.98	1826.35
22.04	1982.625
22.1	2189.335
22.16	2033.95
22.22	2161.67
22.28	2061.305
22.34	2213.02
22.4	2236.38
22.46	2162.92
22.52	2313.25
22.58	2273.42
22.64	2450.79
22.7	2476.205
22.76	2950.07
22.82	3459.67
22.88	5079.95
22.94	6615.99
23	5641.11
23.06	3605.09
23.12	2257.31
23.18	2324.04
23.24	2105.405
23.3	2171.59
23.36	2169.985
23.42	1974.76
23.48	1869.13
23.54	2025.59
23.6	2053.99
23.66	1965.735
23.72	2034.95
23.78	2005.265
23.84	2056.38
23.9	2275.65
23.96	2115.44
24.02	2017.575
24.08	1933.5
24.14	1808.44
24.2	2165.695
24.26	1793.425
24.32	1966.67
24.38	1917.24
24.44	1978.14
24.5	1822.635
24.56	1946.205
24.62	1921.24
24.68	1884.535
24.74	2012.98
24.8	1981.88
24.86	2045.26
24.92	2060.24
24.98	1901.665
25.04	2221.09
25.1	2085.39
25.16	2227.73
25.22	2173.97
25.28	2582.43
25.34	3000
25.4	3070.92
25.46	2641.88
25.52	2525.59
25.58	2398.85
25.64	2400.52
25.7	2366.73
25.76	2176.74
25.82	2263.055
25.88	2325.16
25.94	2432
26	2982.365
26.06	4329.56
26.12	5278.41
26.18	4128.035
26.24	3120.74
26.3	2513.415
26.36	2366.67
26.42	2387.125
26.48	2460.035
26.54	2519.36
26.6	2251.69
26.66	2567.355
26.72	2266.555
26.78	2393.57
26.84	2588.08
26.9	2694.625
26.96	2550.92
27.02	3028.39
27.08	3095.935
27.14	3001.31
27.2	2876.775
27.26	3453.39
27.32	3893.925
27.38	4912.505
27.44	6626.51
27.5	8778
27.56	8290.66
27.62	5959.005
27.68	3924.31
27.74	2934.57
27.8	2695.1
27.86	2606.52
27.92	2414.8
27.98	2282.915
28.04	2216.57
28.1	2393.045
28.16	2154.59
28.22	2150.82
28.28	1918.41
28.34	1965.33
28.4	2001.01
28.46	2157.4
28.52	2049.42
28.58	1927.34
28.64	1817.555
28.7	2130.5
28.76	1963.04
28.82	1983.18
28.88	1840.64
28.94	2033.33
29	1828.125
29.06	1800.33
29.12	2001.685
29.18	1853.86
29.24	1847.13
29.3	1752.5
29.36	2017.6
29.42	1720.16
29.48	1916.67
29.54	1979.63
29.6	1988.3
29.66	2011.83
29.72	1823.73
29.78	2066.67
29.84	1735.56
29.9	2006.48
29.96	1912.58
30.02	1968.7
30.08	1850
30.14	1944.76
30.2	2177.81
30.26	1855.33
30.32	2094.86
30.38	1815.02
30.44	1842.9
30.5	1927.31
30.56	1981.88
30.62	2268.015
30.68	2415.34
30.74	2639.43
30.8	2691.59
30.86	2324.625
30.92	2020.455
30.98	1928.78
31.04	1840.9
31.1	1490.39
31.16	1862.575
31.22	2025.03
31.28	1849.31
31.34	1865.41
31.4	1858.46
31.46	1979.83
31.52	1966.23
31.58	2111.81
31.64	1999.38
31.7	1900.49
31.76	1965.93
31.82	1934.05
31.88	1834.47
31.94	1816.71
32	1799.44
32.06	1699.07
32.12	1736.67
32.18	1649.22
32.24	1832.37
32.3	1947.3
32.36	1899.55
32.42	2025.67
32.48	1786.78
32.54	1924.42
32.6	1893.13
32.66	1759.15
32.72	1871.78
32.78	1835.995
32.84	1714.25
32.9	1963.08
32.96	1857.53
33.02	2200
33.08	1763.07
33.14	1762.625
33.2	2132.78
33.26	2076.42
33.32	1771.015
33.38	2003.02
33.44	1954.08
33.5	1993.46
33.56	2048.3
33.62	2013.15
33.68	2150
33.74	1868.55
33.8	1958.05
33.86	2041.36
33.92	2037.35
33.98	2214.54
34.04	2646.945
34.1	3232.88
34.16	3342.12
34.22	2792.875
34.28	2403.215
34.34	2035.79
34.4	2225.66
34.46	2065.72
34.52	2086.015
34.58	1930.16
34.64	2069.32
34.7	2154.18
34.76	2344.44
34.82	2254.23
34.88	2605.92
34.94	3458.485
35	4010.16
35.06	3861.31
35.12	3296.71
35.18	2593.235
35.24	2310.22
35.3	2518.01
35.36	2136.25
35.42	2204.63
35.48	2292.705
35.54	2270.375
35.6	2054.335
35.66	2438.775
35.72	2583.94
35.78	2450.885
35.84	2323.38
35.9	2609.36
35.96	3225.09
36.02	4312.165
36.08	5211.525
36.14	5539.78
36.2	5435.65
36.26	4338.76
36.32	3899.25
36.38	3289.67
36.44	2999.36
36.5	2891.11
36.56	2841.29
36.62	2630.975
36.68	2576.32
36.74	2832.47
36.8	3132.06
36.86	3076.67
36.92	3207.44
36.98	3364.325
37.04	4083.87
37.1	3957.555
37.16	4198.91
37.22	4267.92
37.28	5551.815
37.34	6940.77
37.4	7288.63
37.46	8571.94
37.52	9305.4
37.58	9040.15
37.64	7518.38
37.7	5965.31
37.76	5206.88
37.82	4805.915
37.88	5130.84
37.94	4787.58
38	5236.25
38.06	5259.66
38.12	5738.92
38.18	6104.185
38.24	6990.985
38.3	7819.99
38.36	9217.81
38.42	11007.59
38.48	15772.89
38.54	25798.315
38.6	52450.705
38.66	79455.495
38.72	65977.6
38.78	42720.065
38.84	19811.825
38.9	8588.28
38.96	5439.32
39.02	4701.77
39.08	4094
39.14	3938.36
39.2	3891.065
39.26	4632.68
39.32	5204.21
39.38	5235.895
39.44	4588.655
39.5	3734.72
39.56	2882.53
39.62	2548.22
39.68	2412.68
39.74	2420.295
39.8	2315.43
39.86	2104.365
39.92	2094.24
39.98	2135.18
40.04	2043.72
40.1	2097.04
40.16	2001.225
40.22	2016.67
40.28	2260.97
40.34	2033.33
40.4	2083.33
40.46	2158.58
40.52	2108.4
40.58	1958.17
40.64	2032.29
40.7	2216.67
40.76	2510.59
40.82	2275.255
40.88	2475.305
40.94	2603.7
41	2736.585
41.06	2954.56
41.12	3401.01
41.18	4013.33
41.24	4771.23
41.3	6480.54
41.36	8350.37
41.42	12974.2
41.48	15293.585
41.54	13654.425
41.6	9584.65
41.66	6330.325
41.72	4200
41.78	3290.62
41.84	2994.94
41.9	2861.4
41.96	2659.5
42.02	2257.73
42.08	2366.04
42.14	2364.005
42.2	1958.265
42.26	2047.935
42.32	2020.6
42.38	2029.555
42.44	2097.38
42.5	2080.67
42.56	1880.11
42.62	2234.07
42.68	2053.5
42.74	2236.92
42.8	2187.215
42.86	2013.37
42.92	2279.47
42.98	1948.45
43.04	1989.15
43.1	1981.2
43.16	2226.89
43.22	2208.04
43.28	3434.93
43.34	6305.11
43.4	6338.255
43.46	4981.315
43.52	3896.315
43.58	2700
43.64	2606.07
43.7	2421.56
43.76	2866.37
43.82	3348.885
43.88	3517.955
43.94	3411.915
44	3123.5
44.06	2966.62
44.12	2127.725
44.18	2216.46
44.24	2109.575
44.3	2066.67
44.36	1944.64
44.42	1709.94
44.48	1939.44
44.54	1794.32
44.6	1867.735
44.66	1899.21
44.72	1624.41
44.78	1893.49
44.84	1688.37
44.9	1898.33
44.96	1813.09
45.02	1929.52
45.08	1895.95
45.14	1803.26
45.2	1973.73
45.26	1866.68
45.32	1833.08
45.38	2030.73
45.44	1936.84
45.5	1845.055
45.56	1847.05
45.62	2004.43
45.68	1962.98
45.74	2153.28
45.8	1900
45.86	1838.63
45.92	2226.77
45.98	1906.855
46.04	2140.55
46.1	2032.73
46.16	2304.05
46.22	2137.55
46.28	1983.08
46.34	2213.1
46.4	2724.8
46.46	2344.33
46.52	2922.72
46.58	3328.55
46.64	4228.61
46.7	6458.385
46.76	9615.755
46.82	9528.42
46.88	8534.68
46.94	6453.925
47	4188.44
47.06	2726.16
47.12	2482.1
47.18	2257.945
47.24	1914.38
47.3	1983.46
47.36	1844.91
47.42	1884.99
47.48	1916.67
47.54	1956.36
47.6	1629.93
47.66	1962.47
47.72	1633.385
47.78	1689.96
47.84	1676.01
47.9	1750
47.96	1672.56
48.02	1829.44
48.08	2072.145
48.14	2037.46
48.2	1906.53
48.26	1835.905
48.32	1825.81
48.38	2080.44
48.44	1730.34
48.5	1814.46
48.56	1610.8
48.62	1764.53
48.68	1675.3
48.74	1680.48
48.8	1713.575
48.86	1661.075
48.92	1461.07
48.98	1767.11
49.04	1638.76
49.1	1547.31
49.16	1435.995
49.22	1775.43
49.28	1879.135
49.34	1738.5
49.4	1616.67
49.46	1752.53
49.52	1667.44
49.58	1751.79
49.64	1811.76
49.7	1678.48
49.76	1671.32
49.82	1609.49
49.88	1897.65
49.94	1639.95
50	1644.85
50.06	1514.39
50.12	1635.59
50.18	1471.13
50.24	1486.765
50.3	1581.15
50.36	1829.02
50.42	1601.32
50.48	1624.68
50.54	1516.64
50.6	1583.33
50.66	1596.27
50.72	1595.43
50.78	1694.02
50.84	1486.365
50.9	1485.28
50.96	1705.12
51.02	1335.68
51.08	1574.66
51.14	1527.8
51.2	1651.83
51.26	1611.235
51.32	1654.15
51.38	1765.675
51.44	1647.28
51.5	1526.45
51.56	1638.43
51.62	1851.68
51.68	1561.59
51.74	1608.5
51.8	1471.5
51.86	1533.33
51.92	1636.47
51.98	1814.43
52.04	1527.34
52.1	1737.97
52.16	1805.93
52.22	1795.02
52.28	1905.76
52.34	2389.72
52.4	2236.03
52.46	2233.02
52.52	2240.52
52.58	1967.335
52.64	1898.69
52.7	1580.87
52.76	1919.21
52.82	1839.58
52.88	1822.81
52.94	1644.205
53	1507.12
53.06	2005.34
53.12	1809.165
53.18	2093.46
53.24	1912.145
53.3	1833.33
53.36	1872.705
53.42	1704.175
53.48	1885.7
53.54	2262.01
53.6	2241.18
53.66	2212.48
53.72	2269.485
53.78	2246.325
53.84	2028.84
53.9	2409.65
53.96	2151.715
54.02	2290.86
54.08	2370.745
54.14	2484.13
54.2	2751.55
54.26	2745.4
54.32	3024
54.38	3672.37
54.44	3698.615
54.5	3265.995
54.56	2987.89
54.62	2727.66
54.68	2479.67
54.74	1890.405
54.8	1929.35
54.86	2026.21
54.92	1803.69
54.98	1807.09
55.04	2119.58
55.1	2104.65
55.16	2136
55.22	1923.435
55.28	1969.48
55.34	1837.91
55.4	1620.27
55.46	2018.02
55.52	1947.14
55.58	2013.7
55.64	1886.92
55.7	2450
55.76	1985.9
55.82	2100.42
55.88	2032.76
55.94	2000.17
56	1932.89
56.06	1715.79
56.12	1867.19
56.18	1567.16
56.24	1617.09
56.3	1783.53
56.36	1749.95
56.42	1900.04
56.48	2199.22
56.54	1916.47
56.6	2116.45
56.66	2217.23
56.72	2499.08
56.78	2151.38
56.84	1966.67
56.9	2098.36
56.96	1897.75
57.02	1815.305
57.08	1818.16
57.14	1747.825
57.2	1930.685
57.26	1799.37
57.32	1996.605
57.38	1780.44
57.44	1786.795
57.5	1646.335
57.56	1833.33
57.62	1608.595
57.68	1531.91
57.74	1780.845
57.8	1745.315
57.86	1466.12
57.92	1457.92
57.98	1811.37
58.04	1593.89
58.1	1552.535
58.16	1664.7
58.22	1696.6
58.28	1982.445
58.34	1517.39
58.4	1567.415
58.46	1614.355
58.52	1750.79
58.58	1512.235
58.64	2069.92
58.7	1936.78
58.76	1829.04
58.82	2445.82
58.88	2146.34
58.94	2465.715
59	3132.36
59.06	4300.72
59.12	4501.38
59.18	4398.96
59.24	3780.14
59.3	3432.25
59.36	2753.365
59.42	2152.26
59.48	2002.31
59.54	1891.56
59.6	1933.33
59.66	1609.76
59.72	1741.31
59.78	1683.33
59.84	1794.91
59.9	1713.08
59.96	1619.325
60.02	1500
60.08	1680.4
60.14	1909.69
60.2	1546.42
60.26	1829.86
60.32	1831.87
60.38	1669.63
60.44	1680.19
60.5	1797.05
60.56	1727.485
60.62	1936.47
60.68	2150
60.74	2004.825
60.8	2208.52
60.86	2816.83
60.92	3156.59
60.98	3555.075
61.04	3528.195
61.1	3688.53
61.16	3211.405
61.22	2824.83
61.28	2321.53
61.34	2131.86
61.4	1990.67
61.46	1827.81
61.52	1748.125
61.58	1712.88
61.64	1768.58
61.7	1816.67
61.76	1671.62
61.82	1718.64
61.88	1801.48
61.94	1781.32
62	1752.03
62.06	1602.33
62.12	1716.67
62.18	1797.915
62.24	1789.64
62.3	1708.18
62.36	1540.66
62.42	2155.88
62.48	2010.88
62.54	2135.95
62.6	2424.33
62.66	2683.23
62.72	2906.74
62.78	2954.53
62.84	2793.335
62.9	2925.86
62.96	2848.61
63.02	2414.335
63.08	2214.32
63.14	2095.39
63.2	2261.9
63.26	2161.87
63.32	1997.37
63.38	1738.52
63.44	1819.55
63.5	1882.785
63.56	2053.64
63.62	1802.49
63.68	1718.395
63.74	1614.15
63.8	1939.865
63.86	1875.69
63.92	1800.02
63.98	1647.585
64.04	1966.67
64.1	2102.605
64.16	1997.38
64.22	1816.65
64.28	1920.35
64.34	1497.1
64.4	1857.36
64.46	1745.21
64.52	1825.75
64.58	1593.31
64.64	1490.78
64.7	1696.985
64.76	1644.73
64.82	1722.17
64.88	1599.92
64.94	1613.89
65	1700
65.06	1833.33
65.12	1536.49
65.18	1525.12
65.24	1536.46
65.3	1774.47
65.36	1575.205
65.42	1628.09
65.48	1639.58
65.54	1720.11
65.6	1609.89
65.66	1515.8
65.72	1659.42
65.78	1555.215
65.84	1971.68
65.9	1674.57
65.96	1650.9
66.02	1925.47
66.08	2020.59
66.14	2091.04
66.2	2194.09
66.26	1906.69
66.32	2181.08
66.38	2086.305
66.44	2098.81
66.5	2116.13
66.56	1937.57
66.62	1801.275
66.68	2044.01
66.74	1978.66
66.8	1818.325
66.86	1951.365
66.92	2054.63
66.98	2033.33
67.04	2027.49
67.1	1962.38
67.16	1893.965
67.22	1843.96
67.28	1842.29
67.34	1612.09
67.4	1780.31
67.46	1631.78
67.52	1418.14
67.58	1580.235
67.64	1504.57
67.7	1334.8
67.76	1762.18
67.82	1663.75
67.88	1642.39
67.94	1515.09
68	1718.26
68.06	1746.795
68.12	1965.27
68.18	1607.645
68.24	1474.32
68.3	1668.33
68.36	1539.325
68.42	1544.02
68.48	1770.13
68.54	1708.95
68.6	1890.46
68.66	1826.23
68.72	1835.17
68.78	1811.84
68.84	1999.8
68.9	1896.04
68.96	2056.88
69.02	2071.61
69.08	2278.66
69.14	1997.085
69.2	2094.185
69.26	1712.31
69.32	1854.445
69.38	1807.42
69.44	1750
69.5	1644.77
69.56	1619.945
69.62	1686.9
69.68	1916.07
69.74	1766.67
69.8	1952.155
69.86	1900
69.92	1766.71
69.98	1694.46
70.04	2069.935
70.1	1866.46
70.16	2086.63
70.22	1743.84
70.28	1994.59
70.34	1769.36
70.4	1797.32
70.46	2002.66
70.52	1878.035
70.58	1999.085
70.64	1571.91
70.7	1640.115
70.76	1657.77
70.82	1488.485
70.88	1412.8
70.94	1679.64
71	1550.595
71.06	1650
71.12	1685.83
71.18	1367.38
71.24	1654.33
71.3	1775
71.36	1597.94
71.42	1621.505
71.48	1592.94
71.54	1552.385
71.6	1742.89
71.66	1757.06
71.72	1709.35
71.78	1564.345
71.84	1664.9
71.9	1642.48
71.96	1771.21
72.02	1649.11
72.08	1976.85
72.14	1477.75
72.2	1729.89
72.26	1871.04
72.32	1872.48
72.38	1866.67
72.44	1835.905
72.5	1766.365
72.56	1943.69
72.62	2177.07
72.68	1927.025
72.74	2043.385
72.8	2170.745
72.86	2596.44
72.92	2510.03
72.98	2899.26
73.04	3256.79
73.1	3016.63
73.16	3047.755
73.22	2558.39
73.28	2660.39
73.34	2072.76
73.4	2107.79
73.46	2207.335
73.52	2103.695
73.58	1936.87
73.64	2239.07
73.7	2111.245
73.76	2286.39
73.82	2401.78
73.88	2500.785
73.94	2385.085
74	2441.31
74.06	2659.77
74.12	2905.96
74.18	2878.55
74.24	3629.775
74.3	4186.68
74.36	5300.06
74.42	5456.595
74.48	5698.66
74.54	5610.99
74.6	5127.97
74.66	4215.06
74.72	3570.59
74.78	3464.345
74.84	2842.14
74.9	2394.27
74.96	2246.895
75.02	2024.385
75.08	2140.79
75.14	1950.125
75.2	1801.52
75.26	1825.73
75.32	1743.855
75.38	1881.84
75.44	1640.49
75.5	1808.895
75.56	1663.71
75.62	1924.51
75.68	1795.06
75.74	1758.765
75.8	1731.88
75.86	1514.52
75.92	1455.06
75.98	1542.005
76.04	1934.13
76.1	1745.68
76.16	1885.62
76.22	1856.61
76.28	1989.075
76.34	2334.215
76.4	2368.1
76.46	2391.39
76.52	2366.67
76.58	1970.98
76.64	2359.71
76.7	2029.01
76.76	1981.89
76.82	1726.1
76.88	1777.53
76.94	1799.22
77	1769.58
77.06	1609.35
77.12	1541.19
77.18	1754.42
77.24	1360.36
77.3	1574.095
77.36	1311.69
77.42	1716.67
77.48	1395.39
77.54	1736.36
77.6	1754.48
77.66	1501.53
77.72	1765.125
77.78	1292.64
77.84	1501.56
77.9	1474.52
77.96	1651.58
78.02	1657.96
78.08	1602.24
78.14	1750
78.2	1436.185
78.26	1646.445
78.32	1673.425
78.38	1841.7
78.44	1524.945
78.5	1586.47
78.56	1838.45
78.62	1631.615
78.68	1537.47
78.74	1527.16
78.8	1753.53
78.86	1766.01
78.92	1484.61
78.98	1813.415
79.04	1475.8
79.1	1544.47
79.16	1479.61
79.22	1584.98
79.28	1681.05
79.34	1692.895
79.4	1807.015
79.46	1842.205
79.52	1652.07
79.58	1811.49
79.64	1872.68
79.7	1839.88
79.76	1702.69
79.82	1712.21
79.88	1681.24
79.94	1645.795
80	1573.035
80.06	1729.525
80.12	1922.51
80.18	1402.185
80.24	1702.205
80.3	1883.33
80.36	1708.995
80.42	1755.315
80.48	1514.995
80.54	1679.635
80.6	1621.03
80.66	1411.95
80.72	1626.195
80.78	1716.5
80.84	1376.05
80.9	1716.18
80.96	1500.65
81.02	1474.16
81.08	1478.71
81.14	1729.39
81.2	1438.525
81.26	1267.78
81.32	1324.515
81.38	1405.455
81.44	1436
81.5	1527.955
81.56	1625.19
81.62	1419.17
81.68	1527.72
81.74	1724.84
81.8	1636.15
81.86	1697.16
81.92	1657.56
81.98	1783.33
82.04	1782.515
82.1	1773.54
82.16	1746.32
82.22	1653.425
82.28	1898.72
82.34	1681.88
82.4	2142.12
82.46	2018.56
82.52	2139.57
82.58	2455.02
82.64	2966.67
82.7	3123.26
82.76	3216.12
82.82	3156.08
82.88	2857.13
82.94	2833.33
83	2966.72
83.06	2720.125
83.12	2296.15
83.18	2446.595
83.24	1980.89
83.3	1821.38
83.36	1753.03
83.42	1919.33
83.48	1606.055
83.54	1592.875
83.6	1866.67
83.66	1688.36
83.72	1776.615
83.78	1516.34
83.84	1564.87
83.9	1596.28
83.96	1673.79
84.02	1686.5
84.08	1550.18
84.14	1528.13
84.2	1591.03
84.26	1310.445
84.32	1697.175
84.38	1581.35
84.44	1532.46
84.5	1770.64
84.56	1780.67
84.62	1716.67
84.68	1419.78
84.74	1700.74
84.8	1521.035
84.86	1408.42
84.92	1696.07
84.98	1583.26
85.04	1683.09
85.1	1462.445
85.16	1541.51
85.22	1363.625
85.28	1380.05
85.34	1627.22
85.4	1545.66
85.46	1565.88
85.52	1393.86
85.58	1539.24
85.64	1312.05
85.7	1611.215
85.76	1528.105
85.82	1528.01
85.88	1390.695
85.94	1378.79
86	1416.89
86.06	1447.095
86.12	1476.96
86.18	1554.63
86.24	1374.03
86.3	1352.65
86.36	1427.66
86.42	1443.105
86.48	1538.065
86.54	1440.495
86.6	1342.805
86.66	1580.83
86.72	1428.18
86.78	1594.22
86.84	1553.03
86.9	1481.27
86.96	1561.78
87.02	1671.545
87.08	1362.07
87.14	1493.21
87.2	1416.67
87.26	1486.56
87.32	1598.3
87.38	1436.57
87.44	1808.22
87.5	1524.81
87.56	1573.76
87.62	1232.56
87.68	1376.58
87.74	1554.12
87.8	1414.21
87.86	1315.38
87.92	1430.685
87.98	1440.9
88.04	1455.17
88.1	1531.54
88.16	1511.21
88.22	1414.48
88.28	1476.08
88.34	1515.68
88.4	1604.76
88.46	1543.83
88.52	1527.19
88.58	1578.785
88.64	1558.58
88.7	1441.81
88.76	1437.1
88.82	1432.595
88.88	1233.33
88.94	1410.655
89	1577.34
89.06	1435.235
89.12	1460.705
89.18	1464.91
89.24	1522.035
89.3	1481.715
89.36	1387.68
89.42	1617.66
89.48	1672.54
89.54	1689.19
89.6	1586.57
89.66	1784.16
89.72	1682.15
89.78	1729.41
89.84	1722.46
89.9	1863.27
89.96	1826.915
90	1978.82