File: Courses/Advance project (MSE)/Mo2Ti2C3/XRD/data/Mo2Ti2C3_Si.dat
3.0000 7283.33
3.0600 6803.35
3.1200 6969.85
3.1800 6844.84
3.2400 6386.88
3.3000 6301.84
3.3600 6282.48
3.4200 5989.9
3.4800 5870.25
3.5400 6237.78
3.6000 6244
3.6600 5899.2
3.7200 5683.33
3.7800 5583.18
3.8400 5491.2
3.9000 5529.5
3.9600 5223.81
4.0200 5432.51
4.0800 4944.28
4.1400 5251.48
4.2000 5321.89
4.2600 5110.38
4.3200 5024.48
4.3800 4887.19
4.4400 4966.45
4.5000 4836.12
4.5600 4855.91
4.6200 4834.2
4.6800 4658.81
4.7400 4786.95
4.8000 4847.94
4.8600 4862.22
4.9200 4596.76
4.9800 4484.61
5.0400 4460.89
5.1000 4651.97
5.1600 4576.99
5.2200 4660.13
5.2800 4392.17
5.3400 4580.33
5.4000 4538.36
5.4600 4532.47
5.5200 4136.17
5.5800 4209.69
5.6400 4308.52
5.7000 4059.25
5.7600 4337.68
5.8200 4010.35
5.8800 4298.78
5.9400 4309.55
6.0000 4283.16
6.0600 4005.11
6.1200 4059.74
6.1800 3971.47
6.2400 4091.7
6.3000 4091.66
6.3600 4231.08
6.4200 4083.41
6.4800 4326.75
6.5400 4187.61
6.6000 4032.17
6.6600 4112.04
6.7200 4079.06
6.7800 4079.26
6.8400 4121.58
6.9000 4158
6.9600 4220.52
7.0200 4026.12
7.0800 4085.65
7.1400 4108.33
7.2000 3958.03
7.2600 4000.42
7.3200 4053.63
7.3800 4048.3
7.4400 4203.22
7.5000 4122.67
7.5600 4358.06
7.6200 4286.25
7.6800 4227.12
7.7400 4225
7.8000 4135.08
7.8600 4387.09
7.9200 4615.1
7.9800 4431.48
8.0400 4816.31
8.1000 4327.13
8.1600 4492.15
8.2200 4198.06
8.2800 4185.33
8.3400 4343.46
8.4000 4000.76
8.4600 4459.87
8.5200 4325.03
8.5800 4377.72
8.6400 4303.12
8.7000 4398.19
8.7600 4325.29
8.8200 4359.22
8.8800 4356.58
8.9400 4285.61
9.0000 4268.6
9.0600 4333.46
9.1200 4332.5
9.1800 4483.27
9.2400 4658.5
9.3000 4345.97
9.3600 4592.83
9.4200 4837.88
9.4800 4509.32
9.5400 4615.99
9.6000 4653.05
9.6600 4527.51
9.7200 4639.69
9.7800 4712.31
9.8400 4745.5
9.9000 4609.74
9.9600 4561.06
10.0200 4578.4
10.0800 4537.77
10.1400 4729.6
10.2000 4651.94
10.2600 4646.9
10.3200 4845.86
10.3800 4595.95
10.4400 4682.27
10.5000 4790.98
10.5600 5033.22
10.6200 4650.84
10.6800 4780.53
10.7400 5201.97
10.8000 4690.2
10.8600 4704.13
10.9200 4869.49
10.9800 5012.69
11.0400 4779.31
11.1000 5068.07
11.1600 4550.29
11.2200 5044.65
11.2800 4827.14
11.3400 4851.69
11.4000 4843.96
11.4600 4872.9
11.5200 4880.27
11.5800 4850.73
11.6400 4963.58
11.7000 5045.29
11.7600 4944.9
11.8200 5111.74
11.8800 4954.44
11.9400 5304.66
12.0000 4820.68
12.0600 5092.69
12.1200 5136.94
12.1800 5086.73
12.2400 5248.09
12.3000 5063.49
12.3600 4905.2
12.4200 4902.55
12.4800 5469.4
12.5400 4982.49
12.6000 5440.53
12.6600 5171.15
12.7200 5008.23
12.7800 4585.98
12.8400 5051.09
12.9000 5109.97
12.9600 5233.07
13.0200 5074.7
13.0800 5324.95
13.1400 5083.37
13.2000 5207.97
13.2600 5257.65
13.3200 5034.14
13.3800 5248.55
13.4400 5065.57
13.5000 4966.77
13.5600 4962.04
13.6200 5233.99
13.6800 4967.26
13.7400 4980.72
13.8000 5035.66
13.8600 5227.73
13.9200 4939.67
13.9800 5189.16
14.0400 5386.31
14.1000 5092.45
14.1600 5114.69
14.2200 5476.6
14.2800 5172.22
14.3400 5309.03
14.4000 5198.86
14.4600 5144.47
14.5200 4891.6
14.5800 5276.26
14.6400 5108.6
14.7000 5101.28
14.7600 5475.79
14.8200 5141.7
14.8800 5126.44
14.9400 5116.26
15.0000 5374.86
15.0600 5306.22
15.1200 5240.57
15.1800 5595.35
15.2400 5544.94
15.3000 5471.4
15.3600 5053.71
15.4200 5092.86
15.4800 5097.23
15.5400 5304.31
15.6000 5028.44
15.6600 5230.77
15.7200 5574.64
15.7800 5095.38
15.8400 5021.23
15.9000 5071.58
15.9600 5493.98
16.0200 5461.31
16.0800 5304.2
16.1400 5254.07
16.2000 5172.88
16.2600 5259.22
16.3200 5278.95
16.3800 5044.44
16.4400 5545.69
16.5000 5339.39
16.5600 4889.23
16.6200 5495.68
16.6800 5474.48
16.7400 5195.83
16.8000 4957.69
16.8600 4999.8
16.9200 5228.91
16.9800 4897.41
17.0400 5240.52
17.1000 5145.05
17.1600 5162.81
17.2200 5113.11
17.2800 5077.52
17.3400 5282.06
17.4000 4976.64
17.4600 5293.07
17.5200 5180.75
17.5800 5139.89
17.6400 5047.93
17.7000 5322.52
17.7600 5033.33
17.8200 4833.33
17.8800 4873.32
17.9400 5129.04
18.0000 4793.91
18.0600 5249.98
18.1200 5104.38
18.1800 4869.62
18.2400 5184.01
18.3000 4813.08
18.3600 5211.48
18.4200 4893.26
18.4800 4978.52
18.5400 5098.85
18.6000 4727.78
18.6600 5285.1
18.7200 4878.39
18.7800 4977.72
18.8400 5245.14
18.9000 4952.14
18.9600 5044.1
19.0200 4922.8
19.0800 5396.41
19.1400 5122.02
19.2000 4759.62
19.2600 5124.49
19.3200 4943.09
19.3800 5121.73
19.4400 5043.74
19.5000 4967.08
19.5600 4767.78
19.6200 4835.06
19.6800 5024.38
19.7400 4747.48
19.8000 4847.86
19.8600 4941.83
19.9200 5055.36
19.9800 4942.81
20.0400 4741.67
20.1000 4817.25
20.1600 4813.23
20.2200 4706.82
20.2800 4944.44
20.3400 4545.41
20.4000 5043.74
20.4600 4907.89
20.5200 4961.12
20.5800 4774.06
20.6400 4857.13
20.7000 4740.39
20.7600 4689.4
20.8200 4678.98
20.8800 5128.4
20.9400 4902.68
21.0000 4645.35
21.0600 4676.81
21.1200 4711.73
21.1800 4843.26
21.2400 4754.22
21.3000 4847.52
21.3600 4538.12
21.4200 4689.71
21.4800 4605.64
21.5400 4638.57
21.6000 4610.57
21.6600 4828.1
21.7200 4519.51
21.7800 4841.51
21.8400 5119.64
21.9000 4651.08
21.9600 4607.2
22.0200 4614.9
22.0800 4736.67
22.1400 4547.05
22.2000 4571.48
22.2600 4622.01
22.3200 4484.72
22.3800 4505.28
22.4400 4652.22
22.5000 4416.45
22.5600 4519.2
22.6200 4282.27
22.6800 4369.27
22.7400 4388.05
22.8000 4349.3
22.8600 4181.59
22.9200 4305.56
22.9800 4643.88
23.0400 4446.95
23.1000 4558.33
23.1600 4565
23.2200 4339.7
23.2800 4451.34
23.3400 4219.02
23.4000 4338.62
23.4600 4322.98
23.5200 4261.8
23.5800 4188.46
23.6400 4189.65
23.7000 4321.53
23.7600 4459.44
23.8200 4565.92
23.8800 4236.35
23.9400 4601.65
24.0000 4417.68
24.0600 4408.67
24.1200 4382.28
24.1800 4365.9
24.2400 4409.27
24.3000 4328.19
24.3600 4314.7
24.4200 4277.47
24.4800 4376.95
24.5400 4417.47
24.6000 4458.19
24.6600 4503.92
24.7200 4277.13
24.7800 4924.21
24.8400 4940.28
24.9000 4927.97
24.9600 4817.17
25.0200 4540.25
25.0800 4407.02
25.1400 4494.72
25.2000 4391.37
25.2600 4366.58
25.3200 4549.55
25.3800 4786.6
25.4400 4537.8
25.5000 4459.06
25.5600 4425.46
25.6200 4295.27
25.6800 4618.39
25.7400 4219.39
25.8000 4500.69
25.8600 4413.68
25.9200 4262.76
25.9800 4323.22
26.0400 4152.35
26.1000 4387.17
26.1600 4358.12
26.2200 4229.56
26.2800 4304.63
26.3400 4300.55
26.4000 4340.04
26.4600 4448.22
26.5200 4328.32
26.5800 4342.23
26.6400 4617.44
26.7000 4553.49
26.7600 4259.49
26.8200 4400.19
26.8800 4212.43
26.9400 4609.39
27.0000 4659.01
27.0600 4762.08
27.1200 4792.27
27.1800 5110.52
27.2400 5317.48
27.3000 5542.41
27.3600 6566.36
27.4200 7310.99
27.4800 8034.55
27.5400 7845.13
27.6000 6551.8
27.6600 5683.4
27.7200 5133
27.7800 4761.49
27.8400 4715.7
27.9000 4658.19
27.9600 4796.8
28.0200 4552.52
28.0800 4800.1
28.1400 4470.14
28.2000 4430.47
28.2600 4434.1
28.3200 4536.74
28.3800 4441.37
28.4400 4509.65
28.5000 4554.45
28.5600 4414.45
28.6200 4538.42
28.6800 4483.44
28.7400 4647.72
28.8000 4856.48
28.8600 4555.98
28.9200 4766.15
28.9800 4645.98
29.0400 4831.62
29.1000 4591.19
29.1600 4416.12
29.2200 4672.26
29.2800 4378.94
29.3400 4256.25
29.4000 4522.53
29.4600 4382.69
29.5200 4401.94
29.5800 4493.95
29.6400 4631.93
29.7000 4609.43
29.7600 4552.56
29.8200 4877.85
29.8800 4469.4
29.9400 4786.13
30.0000 4458.13
30.0600 4394.02
30.1200 4214.95
30.1800 4436.48
30.2400 4386.97
30.3000 4553.33
30.3600 4475.1
30.4200 4566.73
30.4800 4560.4
30.5400 4443.7
30.6000 4526.16
30.6600 4724.32
30.7200 4604.94
30.7800 4570.33
30.8400 4622.31
30.9000 4390.08
30.9600 4341.08
31.0200 4589.67
31.0800 4667.14
31.1400 4584.23
31.2000 4615.62
31.2600 4457.79
31.3200 4290.47
31.3800 4858.81
31.4400 4505.35
31.5000 4491.59
31.5600 4733.33
31.6200 4478.53
31.6800 4495.44
31.7400 4775
31.8000 4715.99
31.8600 4528.64
31.9200 4449.3
31.9800 4575.42
32.0400 4811.77
32.1000 4681.65
32.1600 4531.93
32.2200 4585.91
32.2800 4881.7
32.3400 4583.8
32.4000 4879.73
32.4600 4614.51
32.5200 5027.97
32.5800 4918.54
32.6400 4801.09
32.7000 5122.65
32.7600 4905.72
32.8200 5141.43
32.8800 4734.17
32.9400 5009.74
33.0000 5384.98
33.0600 5310.54
33.1200 5068.43
33.1800 5217.56
33.2400 5260.89
33.3000 5429.23
33.3600 5245.42
33.4200 5166.08
33.4800 5278.15
33.5400 5113.16
33.6000 5132.74
33.6600 5091.77
33.7200 5107.16
33.7800 5024.88
33.8400 5126.46
33.9000 5194.92
33.9600 4954.92
34.0200 5370.38
34.0800 5152.48
34.1400 4975.51
34.2000 5340.56
34.2600 4784.03
34.3200 5168.27
34.3800 5266.66
34.4400 4968.02
34.5000 4847.12
34.5600 4990.76
34.6200 5126.03
34.6800 5148.16
34.7400 5212.44
34.8000 5173.56
34.8600 5247.29
34.9200 5352.02
34.9800 5348.83
35.0400 5286.85
35.1000 5289.93
35.1600 5111.03
35.2200 5344.73
35.2800 5747.48
35.3400 5276.59
35.4000 5353.92
35.4600 5714.52
35.5200 5882.79
35.5800 5980.89
35.6400 6200
35.7000 6033.59
35.7600 6300.03
35.8200 6583.14
35.8800 6999.78
35.9400 6800.79
36.0000 7260.35
36.0600 8050.55
36.1200 8303.99
36.1800 7588.1
36.2400 7222.54
36.3000 6457.94
36.3600 6005.7
36.4200 5942.88
36.4800 5550.26
36.5400 5347.37
36.6000 5624.13
36.6600 5488.71
36.7200 5274.65
36.7800 5464.81
36.8400 5032.08
36.9000 5220.4
36.9600 5593.85
37.0200 5357.51
37.0800 5486.58
37.1400 5371.99
37.2000 5326.57
37.2600 5563.59
37.3200 5362.29
37.3800 5559.51
37.4400 5228.03
37.5000 5248.91
37.5600 5478.68
37.6200 5420.6
37.6800 5491.6
37.7400 5610.47
37.8000 5622.53
37.8600 5693.85
37.9200 5577.91
37.9800 5167.51
38.0400 5579.08
38.1000 5456.7
38.1600 5577.33
38.2200 5405.32
38.2800 5457.61
38.3400 5701.78
38.4000 5606.32
38.4600 5836.86
38.5200 5750.49
38.5800 5969.02
38.6400 5689.46
38.7000 5976.04
38.7600 5541.09
38.8200 5738.42
38.8800 5687.34
38.9400 5819.4
39.0000 5989.72
39.0600 5639.71
39.1200 5594.97
39.1800 5729.57
39.2400 5903.45
39.3000 5711.52
39.3600 5614.91
39.4200 5759
39.4800 5528.37
39.5400 5375.34
39.6000 5353.27
39.6600 5289.94
39.7200 5425.06
39.7800 5540.32
39.8400 5470.75
39.9000 5579.03
39.9600 5477.91
40.0200 5544.56
40.0800 5345.9
40.1400 5580.24
40.2000 5757.15
40.2600 5736.05
40.3200 5590.19
40.3800 5737.7
40.4400 5863.76
40.5000 5710.38
40.5600 5804.58
40.6200 5871.53
40.6800 5441.67
40.7400 5956.53
40.8000 5964.7
40.8600 5995.86
40.9200 6115.81
40.9800 6001.57
41.0400 6251.85
41.1000 6671.07
41.1600 6748.18
41.2200 6910.99
41.2800 7714.1
41.3400 7706.7
41.4000 7531.85
41.4600 7747.05
41.5200 7589.23
41.5800 7410.64
41.6400 7460.65
41.7000 7093.24
41.7600 7423.64
41.8200 6878.79
41.8800 7072.78
41.9400 6834.58
42.0000 6473.16
42.0600 6233.42
42.1200 6193.95
42.1800 6135.45
42.2400 5923.53
42.3000 5944.7
42.3600 5953.25
42.4200 5791.67
42.4800 5908.82
42.5400 5728.89
42.6000 5453.6
42.6600 5462.47
42.7200 5402.28
42.7800 5393.48
42.8400 5796.99
42.9000 5547.05
42.9600 5608.64
43.0200 5449.7
43.0800 5490.35
43.1400 5523.74
43.2000 5436.19
43.2600 5701.77
43.3200 5760.77
43.3800 5705.95
43.4400 5914.94
43.5000 5925.65
43.5600 6058.27
43.6200 6216.67
43.6800 6542.46
43.7400 6356.58
43.8000 6589.48
43.8600 6622.36
43.9200 6566.67
43.9800 6716.51
44.0400 6578.92
44.1000 6410.47
44.1600 6382.53
44.2200 7170.47
44.2800 8829.42
44.3400 10861.9
44.4000 14470
44.4600 18831.4
44.5200 24385.8
44.5800 18601
44.6400 14168.7
44.7000 9624.27
44.7600 6722.09
44.8200 5913.47
44.8800 5938.43
44.9400 5401.19
45.0000 5927.47
45.0600 5580.6
45.1200 5462.11
45.1800 5728.69
45.2400 5336.93
45.3000 5640.69
45.3600 5509.7
45.4200 5176.74
45.4800 5407.83
45.5400 5389.96
45.6000 5361.31
45.6600 5322.02
45.7200 5529.02
45.7800 5434.73
45.8400 5281.95
45.9000 5341.61
45.9600 5285.2
46.0200 5462.24
46.0800 5483.28
46.1400 5243.83
46.2000 5371.21
46.2600 5510.87
46.3200 5321.7
46.3800 5130.39
46.4400 5552.05
46.5000 5236.29
46.5600 5298.19
46.6200 5363.49
46.6800 5250.73
46.7400 5091.74
46.8000 5118.72
46.8600 5036.42
46.9200 5213.94
46.9800 5254.14
47.0400 5132.3
47.1000 5171.73
47.1600 5268.78
47.2200 5287.81
47.2800 4972.89
47.3400 5192.07
47.4000 5202.9
47.4600 5156.59
47.5200 4925.04
47.5800 5148.36
47.6400 5173.5
47.7000 5231.23
47.7600 5111.49
47.8200 5099.47
47.8800 5321.29
47.9400 5203.77
48.0000 5342.19
48.0600 5413.82
48.1200 5203.4
48.1800 5097.65
48.2400 5330.57
48.3000 5529.1
48.3600 5322.89
48.4200 5281.96
48.4800 5258.33
48.5400 5439.51
48.6000 5297.75
48.6600 5174.32
48.7200 5148.89
48.7800 5286.02
48.8400 5135.94
48.9000 5080.19
48.9600 5089.12
49.0200 5287.05
49.0800 5167.86
49.1400 4985.88
49.2000 5189.36
49.2600 5165.58
49.3200 4958.57
49.3800 5372.49
49.4400 5202.23
49.5000 5138.44
49.5600 5078.18
49.6200 4971.35
49.6800 5052.4
49.7400 5093.69
49.8000 5122.73
49.8600 5145.59
49.9200 5133.33
49.9800 5182.49
50.0400 5124.95
50.1000 5086.12
50.1600 4870.47
50.2200 4874.74
50.2800 5077.83
50.3400 5012.62
50.4000 5058.33
50.4600 5042.5
50.5200 5420.92
50.5800 5188.95
50.6400 5106.43
50.7000 5340.81
50.7600 5324.24
50.8200 5346.13
50.8800 5479.84
50.9400 5474.77
51.0000 5588.48
51.0600 5288.73
51.1200 5488.98
51.1800 5528.29
51.2400 5441.68
51.3000 5462.81
51.3600 5414.82
51.4200 5380.74
51.4800 5574.06
51.5400 5802.41
51.6000 6355.02
51.6600 7139.6
51.7200 8605.63
51.7800 10289
51.8400 13372.7
51.9000 13189.3
51.9600 9592.11
52.0200 9161.08
52.0800 6817
52.1400 5600.78
52.2000 5663.54
52.2600 5109.89
52.3200 5416.95
52.3800 5351.86
52.4400 5002.19
52.5000 5095.11
52.5600 5429.28
52.6200 5094.73
52.6800 5153.01
52.7400 5261.5
52.8000 5116.94
52.8600 5363.4
52.9200 5449.76
52.9800 5222.73
53.0400 5252.36
53.1000 5097.62
53.1600 5431.51
53.2200 5404.59
53.2800 5256.08
53.3400 5272.14
53.4000 5480.51
53.4600 5227.61
53.5200 5325.55
53.5800 5222.26
53.6400 5329.81
53.7000 5504.56
53.7600 5233.73
53.8200 5495.65
53.8800 5420.84
53.9400 5695.98
54.0000 5633.17
54.0600 5887.77
54.1200 6120.93
54.1800 6366.42
54.2400 7159.5
54.3000 7933.33
54.3600 8236.65
54.4200 8134.81
54.4800 7467.17
54.5400 7262.23
54.6000 6491.55
54.6600 6048.28
54.7200 5566.2
54.7800 5608.14
54.8400 5544.57
54.9000 5546.26
54.9600 5406.52
55.0200 5228.69
55.0800 5346
55.1400 5452.99
55.2000 5458.33
55.2600 5440.49
55.3200 5193.43
55.3800 5670.19
55.4400 5404.74
55.5000 5508.8
55.5600 5411.74
55.6200 5217.81
55.6800 5545.87
55.7400 5359.89
55.8000 5343.36
55.8600 5493.57
55.9200 5568.24
55.9800 5369.06
56.0400 5465.32
56.1000 5522.34
56.1600 5390.89
56.2200 5406.05
56.2800 5392.56
56.3400 5703.67
56.4000 5661.5
56.4600 5716.46
56.5200 6044.93
56.5800 6150.87
56.6400 6233.29
56.7000 6237.66
56.7600 6224.8
56.8200 6128.7
56.8800 5772.15
56.9400 5705.01
57.0000 5753.43
57.0600 5680.69
57.1200 5553.65
57.1800 5678.19
57.2400 5525.72
57.3000 6004.45
57.3600 5716.11
57.4200 5487.14
57.4800 5849.98
57.5400 5771.38
57.6000 5709.28
57.6600 5952.51
57.7200 5713.77
57.7800 5844.28
57.8400 6269.19
57.9000 5879.48
57.9600 6170.86
58.0200 6096.63
58.0800 6135.25
58.1400 6022.23
58.2000 6102.96
58.2600 5882.53
58.3200 6239.97
58.3800 6201.65
58.4400 6051.16
58.5000 6130.27
58.5600 5949.92
58.6200 5820.1
58.6800 5928.65
58.7400 5770.09
58.8000 5893.58
58.8600 5817.05
58.9200 5477.77
58.9800 5715.65
59.0400 5688.95
59.1000 5788.08
59.1600 5941.48
59.2200 5705.11
59.2800 5709.58
59.3400 6132.8
59.4000 5925.84
59.4600 5984.92
59.5200 5924.26
59.5800 6107.29
59.6400 5946.08
59.7000 6128.1
59.7600 6111.4
59.8200 6136.36
59.8800 6472.26
59.9400 6370.18
60.0000 6648.49
60.0600 6668.11
60.1200 6698.36
60.1800 7043.58
60.2400 7014.26
60.3000 6879.81
60.3600 7125.35
60.4200 7148.67
60.4800 7025.13
60.5400 6823.12
60.6000 6802.52
60.6600 6518.27
60.7200 6664.72
60.7800 6758.57
60.8400 6652.52
60.9000 6133.65
60.9600 6255.4
61.0200 6266.44
61.0800 6269.24
61.1400 6111.08
61.2000 6136.19
61.2600 6124.83
61.3200 6220.15
61.3800 6188.94
61.4400 5750.41
61.5000 5604.93
61.5600 6060.31
61.6200 5837.06
61.6800 6075.6
61.7400 5977.48
61.8000 5877.63
61.8600 5677.62
61.9200 5877.6
61.9800 5984.81
62.0400 5699.81
62.1000 6046.81
62.1600 5925.68
62.2200 5923.57
62.2800 5683.82
62.3400 5860.06
62.4000 5862.49
62.4600 5799.02
62.5200 5496.86
62.5800 6155.5
62.6400 5914.7
62.7000 5927.04
62.7600 5933.51
62.8200 6129.6
62.8800 6308.66
62.9400 5869.01
63.0000 5971.49
63.0600 5834.95
63.1200 5938.9
63.1800 5964.76
63.2400 5592.81
63.3000 5754.16
63.3600 5650.11
63.4200 5881.68
63.4800 5776.43
63.5400 5821.94
63.6000 5710.28
63.6600 5361.54
63.7200 5706.25
63.7800 5522.78
63.8400 5654.22
63.9000 5657.6
63.9600 6039.61
64.0200 6053.64
64.0800 5915.24
64.1400 5824.72
64.2000 6133.1
64.2600 5921.88
64.3200 5826.1
64.3800 5917.39
64.4400 5955.93
64.5000 5787.49
64.5600 5804.06
64.6200 5685.53
64.6800 5687.55
64.7400 5685.98
64.8000 5453.31
64.8600 5359.48
64.9200 5581.44
64.9800 5463.27
65.0400 5760.08
65.1000 5712.35
65.1600 5600.58
65.2200 5902.56
65.2800 5741.27
65.3400 5795.35
65.4000 5541.09
65.4600 5617.19
65.5200 5764.77
65.5800 5812.16
65.6400 5730.24
65.7000 5709.47
65.7600 5597.02
65.8200 5450.47
65.8800 5874.69
65.9400 5709.22
66.0000 5840.73
66.0600 5646.19
66.1200 5358.06
66.1800 5623.17
66.2400 5430.19
66.3000 5958.68
66.3600 5724.71
66.4200 5861.65
66.4800 5744.8
66.5400 5866.07
66.6000 5633.12
66.6600 5991.67
66.7200 5986.48
66.7800 6077.15
66.8400 5811.25
66.9000 6112.56
66.9600 5891.23
67.0200 6187.87
67.0800 5922.24
67.1400 6043.19
67.2000 6108.33
67.2600 5936.14
67.3200 6015.15
67.3800 5919.24
67.4400 5931.92
67.5000 5892.25
67.5600 5794.2
67.6200 5813.38
67.6800 5771.51
67.7400 5874.92
67.8000 6055
67.8600 5706.77
67.9200 5591.49
67.9800 5876.39
68.0400 5798.77
68.1000 5783.77
68.1600 5793.41
68.2200 5971.6
68.2800 5796.85
68.3400 5487.36
68.4000 5821.73
68.4600 5911.43
68.5200 5562.51
68.5800 5671.94
68.6400 5801.62
68.7000 5779.87
68.7600 5911.14
68.8200 6050.49
68.8800 6177.76
68.9400 6111.57
69.0000 6408.82
69.0600 6600.11
69.1200 6447.39
69.1800 6252.98
69.2400 6226.62
69.3000 6069.04
69.3600 6134.45
69.4200 5877.11
69.4800 5719.65
69.5400 5948.71
69.6000 6026.38
69.6600 5941.2
69.7200 5795.84
69.7800 5954.14
69.8400 5798.71
69.9000 6024
69.9600 5738.44
70.0200 6190.42
70.0800 5709.6
70.1400 5832.38
70.2000 5760.28
70.2600 5825
70.3200 5825.27
70.3800 5772.32
70.4400 5802.08
70.5000 5918.5
70.5600 5592.92
70.6200 5833.59
70.6800 5740.25
70.7400 5876.53
70.8000 5886.76
70.8600 5786.66
70.9200 5728.45
70.9800 5526.75
71.0400 5533.28
71.1000 5773.47
71.1600 5849.9
71.2200 5796.16
71.2800 5810.03
71.3400 5624.38
71.4000 5872.65
71.4600 5997.77
71.5200 5649.38
71.5800 5637.28
71.6400 5891.67
71.7000 5808.35
71.7600 5867.78
71.8200 5945.13
71.8800 6152.03
71.9400 6131.35
72.0000 6104
72.0600 5819.8
72.1200 6301.76
72.1800 5988.96
72.2400 6161.86
72.3000 6024.48
72.3600 6282.93
72.4200 6360.19
72.4800 6247.62
72.5400 6235.26
72.6000 6273.71
72.6600 5996.4
72.7200 5809.03
72.7800 6113.39
72.8400 5913.45
72.9000 6070.31
72.9600 5887.78
73.0200 5887.19
73.0800 5960.17
73.1400 5898.06
73.2000 5873.1
73.2600 5869.44
73.3200 5949.88
73.3800 5986.09
73.4400 5866.43
73.5000 5752.19
73.5600 5747.72
73.6200 6062.34
73.6800 5884.35
73.7400 5642.77
73.8000 5784.47
73.8600 5770.46
73.9200 5948.37
73.9800 5885.24
74.0400 5869.73
74.1000 6001.44
74.1600 5744.15
74.2200 5582.07
74.2800 5752.68
74.3400 5693.6
74.4000 5875.25
74.4600 5931.97
74.5200 5865.84
74.5800 5786.78
74.6400 5523.78
74.7000 6018.62
74.7600 5609.76
74.8200 6039.16
74.8800 6269.58
74.9400 5733.01
75.0000 5734.86
75.0600 5845.18
75.1200 5883.34
75.1800 5937.3
75.2400 5920.26
75.3000 5808.33
75.3600 5871.02
75.4200 5727.36
75.4800 5837.32
75.5400 5837.32
75.6000 6141.92
75.6600 5811.26
75.7200 5919
75.7800 5865.02
75.8400 6137.21
75.9000 6052.01
75.9600 6259.08
76.0200 6458.64
76.0800 6729.95
76.1400 6798.6
76.2000 7014.24
76.2600 7882.02
76.3200 9242.57
76.3800 9899.7
76.4400 9012.16
76.5000 7700.61
76.5600 7574.08
76.6200 8031.49
76.6800 6565.1
76.7400 6191.67
76.8000 6298.89
76.8600 5937.01
76.9200 5639
76.9800 5805.65
77.0400 5790.97
77.1000 5810.55
77.1600 5724.27
77.2200 5906.47
77.2800 5725.84
77.3400 5702.35
77.4000 5852.02
77.4600 5480.94
77.5200 5661.44
77.5800 5824.12
77.6400 5878.78
77.7000 5814.13
77.7600 5578.98
77.8200 5602.45
77.8800 5766.23
77.9400 5472.67
78.0000 5755.19
78.0600 6083.89
78.1200 5674.43
78.1800 5699.84
78.2400 5742.48
78.3000 5550.58
78.3600 5605.78
78.4200 5684.07
78.4800 5754.79
78.5400 5659.95
78.6000 5593.39
78.6600 5691.39
78.7200 5565.13
78.7800 5667.77
78.8400 5494.36
78.9000 5591.67
78.9600 5692.29
79.0200 5631.68
79.0800 6022.29
79.1400 5772.23
79.2000 5760.35
79.2600 5440.47
79.3200 5529.67
79.3800 5715.64
79.4400 5603.84
79.5000 5631.18
79.5600 5492.67
79.6200 5770.94
79.6800 5545.37
79.7400 5473.84
79.8000 5715.95
79.8600 5671.28
79.9200 5707.84
79.9800 5630.38
80.0000 5794.17