File: Courses/Advance project (MSE)/Mo2Ti2C3/XRD/data/P10  0001.dat
4.37222  6.41541
4.39155  4.48579
4.41087  5.05445
4.43019  4.04729
4.44952  3.47834
4.46884  4.36939
4.48817  5.01024
4.50749  6.24836
4.52681  7.44124
4.54614  7.05333
4.56546  5.14566
4.58478  1.49271
4.60411  -1.12488
4.62343  0.01267
4.64276  0.987283
4.66208  3.61325
4.6814  5.11503
4.70073  6.91607
4.72005  7.68817
4.73937  8.62477
4.7587  7.47652
4.77802  7.23181
4.79735  5.95572
4.81667  3.82771
4.83599  4.12637
4.85532  1.77909
4.87464  1.51699
4.89396  2.5327
4.91329  4.74791
4.93261  7.20124
4.95194  5.70587
4.97126  2.14373
4.99058  1.16727
5.00991  2.91423
5.02923  6.07652
5.04855  5.70974
5.06788  4.61561
5.0872  2.49141
5.10653  0.668218
5.12585  -0.611961
5.14517  0.0928809
5.1645  3.41637
5.18382  6.52939
5.20314  6.94178
5.22247  5.4854
5.24179  5.84973
5.26112  7.63048
5.28044  4.80347
5.29976  2.30753
5.31909  -2.18342
5.33841  -4.20684
5.35773  -2.0437
5.37706  -0.436142
5.39638  1.56526
5.41571  2.53
5.43503  2.2474
5.45435  3.37128
5.47368  4.65879
5.493  3.61196
5.51232  2.86965
5.53165  4.17761
5.55097  5.35424
5.5703  7.01855
5.58962  5.7667
5.60894  6.48099
5.62827  6.09605
5.64759  4.85579
5.66691  4.0669
5.68624  3.56399
5.70556  4.17142
5.72489  5.68357
5.74421  5.59067
5.76353  5.65376
5.78286  3.45969
5.80218  2.77346
5.8215  0.585939
5.84083  -1.03068
5.86015  -1.11181
5.87948  1.00619
5.8988  1.24632
5.91812  -0.629051
5.93745  -1.0995
5.95677  -0.649796
5.97609  0.112696
5.99542  -0.155862
6.01474  1.44277
6.03407  3.4828
6.05339  3.39442
6.07271  1.80365
6.09204  -0.223709
6.11136  0.0404122
6.13068  0.530906
6.15001  2.33214
6.16933  4.9808
6.18866  5.95289
6.20798  4.5404
6.2273  2.21289
6.24663  2.16574
6.26595  3.54093
6.28527  3.24896
6.3046  2.11412
6.32392  1.04948
6.34325  2.92048
6.36257  4.11661
6.38189  3.88032
6.40122  4.24243
6.42054  4.2977
6.43986  5.14895
6.45919  3.36555
6.47851  1.75951
6.49784  0.02341
6.51716  -0.460768
6.53648  -0.230161
6.55581  0.796924
6.57513  1.30917
6.59445  2.46795
6.61378  3.67421
6.6331  3.41829
6.65243  3.18166
6.67175  1.45378
6.69107  0.447455
6.7104  -1.37142
6.72972  -1.21117
6.74904  0.117536
6.76837  -0.394371
6.78769  -0.420273
6.80702  -0.172263
6.82634  -0.0310049
6.84566  1.38286
6.86499  0.446532
6.88431  1.93018
6.90363  0.665554
6.92296  -0.819487
6.94228  -1.67597
6.96161  -1.15031
6.98093  1.86627
7.00025  3.9945
7.01958  4.26827
7.0389  1.65174
7.05822  0.471509
7.07755  1.53338
7.09687  1.05929
7.1162  0.485509
7.13552  1.48631
7.15484  3.99096
7.17417  4.21554
7.19349  3.29872
7.21281  3.00191
7.23214  3.35233
7.25146  3.4277
7.27079  2.24229
7.29011  0.322975
7.30943  0.217313
7.32876  1.67721
7.34808  3.19031
7.3674  2.12634
7.38673  0.548471
7.40605  0.724729
7.42538  1.65027
7.4447  2.36904
7.46402  1.67471
7.48335  0.69893
7.50267  0.103919
7.52199  -1.01894
7.54132  -0.79768
7.56064  -1.27751
7.57997  -0.980728
7.59929  -0.517837
7.61861  1.33741
7.63794  1.27643
7.65726  -1.04006
7.67658  -1.06292
7.69591  -2.16447
7.71523  -2.07151
7.73456  -2.41737
7.75388  -0.642251
7.7732  1.59073
7.79253  1.74981
7.81185  1.21269
7.83117  -0.468596
7.8505  -0.12821
7.86982  -0.356851
7.88915  1.28755
7.90847  3.35089
7.92779  3.93576
7.94712  3.2845
7.96644  2.16737
7.98576  2.27021
8.00509  3.26141
8.02441  3.65368
8.04374  4.03138
8.06306  4.25432
8.08238  5.62239
8.10171  7.48244
8.12103  9.68237
8.14035  12.0136
8.15968  13.944
8.179  16.5195
8.19833  17.5628
8.21765  17.5533
8.23697  16.9308
8.2563  16.7112
8.27562  17.9527
8.29495  18.8538
8.31427  19.834
8.33359  20.1234
8.35292  21.3818
8.37224  24.16
8.39156  28.9577
8.41089  32.8021
8.43021  33.7445
8.44954  33.8174
8.46886  33.176
8.48818  35.1748
8.50751  34.3312
8.52683  34.7542
8.54615  32.8265
8.56548  33.5931
8.5848  29.4293
8.60413  27.0618
8.62345  23.6738
8.64277  21.3363
8.6621  18.3211
8.68142  15.4666
8.70074  13.4723
8.72007  12.345
8.73939  9.74827
8.75872  6.65584
8.77804  4.01919
8.79736  3.41902
8.81669  2.04789
8.83601  0.332583
8.85533  -0.419191
8.87466  -0.282939
8.89398  0.380292
8.91331  0.497895
8.93263  1.15462
8.95195  0.0178677
8.97128  2.87851
8.9906  5.15037
9.00992  8.81096
9.02925  12.0965
9.04857  12.2856
9.0679  8.33992
9.08722  1.4299
9.10654  -0.7111
9.12587  4.8813
9.14519  12.0805
9.16451  14.8206
9.18384  12.8942
9.20316  12.5341
9.22249  12.8595
9.24181  12.0861
9.26113  11.389
9.28046  8.70381
9.29978  5.77201
9.3191  3.99183
9.33843  4.61717
9.35775  6.46194
9.37708  5.40869
9.3964  2.38409
9.41572  -1.27474
9.43505  -1.83593
9.45437  -1.2478
9.47369  -1.57558
9.49302  -2.11159
9.51234  -3.15055
9.53167  -2.56731
9.55099  -2.19397
9.57031  -3.6869
9.58964  -4.83261
9.60896  -3.89274
9.62828  -2.23248
9.64761  0.839773
9.66693  1.02951
9.68626  2.75916
9.70558  2.99647
9.7249  5.30968
9.74423  8.43023
9.76355  13.386
9.78287  18.9459
9.8022  25.6935
9.82152  32.0031
9.84085  40.3221
9.86017  48.9097
9.87949  61.2646
9.89882  71.9891
9.91814  83.4727
9.93746  92.8051
9.95679  101.458
9.97611  110.153
9.99544  116.405
10.0148  121.145
10.0341  121.863
10.0534  119.292
10.0727  115.296
10.0921  109.189
10.1114  103.964
10.1307  95.6573
10.15  86.5551
10.1693  74.9586
10.1887  63.8663
10.208  54.0849
10.2273  44.8532
10.2466  37.6382
10.266  28.6249
10.2853  22.9049
10.3046  18.4808
10.3239  15.9805
10.3433  13.5018
10.3626  10.2758
10.3819  9.86641
10.4012  11.4793
10.4206  13.9938
10.4399  16.8247
10.4592  17.9342
10.4785  18.4995
10.4979  21.0414
10.5172  25.5986
10.5365  35.2553
10.5558  44.379
10.5751  50.9401
10.5945  54.6872
10.6138  60.2425
10.6331  64.7855
10.6524  68.9128
10.6718  72.5336
10.6911  77.1774
10.7104  83.3552
10.7297  87.4751
10.7491  90.8567
10.7684  92.7752
10.7877  97.1341
10.807  101.72
10.8264  107.417
10.8457  113.173
10.865  117.916
10.8843  123.944
10.9037  131.063
10.923  138.404
10.9423  145.312
10.9616  150.365
10.9809  152.803
11.0003  152.774
11.0196  154.958
11.0389  155.292
11.0582  154.083
11.0776  147.905
11.0969  142.636
11.1162  135.045
11.1355  127.566
11.1549  116.146
11.1742  105.912
11.1935  95.1909
11.2128  86.4269
11.2322  78.481
11.2515  71.2405
11.2708  65.0917
11.2901  60.4533
11.3095  56.9507
11.3288  54.4658
11.3481  53.7135
11.3674  55.4091
11.3867  54.0484
11.4061  56.3104
11.4254  59.8624
11.4447  68.5778
11.464  76.2566
11.4834  84.7113
11.5027  93.6
11.522  104.81
11.5413  118.324
11.5607  133.095
11.58  147.501
11.5993  160.472
11.6186  171.492
11.638  177.534
11.6573  180.968
11.6766  181.917
11.6959  179.171
11.7152  173.94
11.7346  166.942
11.7539  157.302
11.7732  143.854
11.7925  129.409
11.8119  113.326
11.8312  96.7121
11.8505  81.657
11.8698  65.3146
11.8892  52.4406
11.9085  43.0029
11.9278  35.551
11.9471  30.6859
11.9665  25.9335
11.9858  23.4684
12.0051  18.9396
12.0244  15.3382
12.0438  13.7108
12.0631  11.3625
12.0824  9.5008
12.1017  9.03216
12.121  8.91186
12.1404  6.52923
12.1597  7.08448
12.179  8.68436
12.1983  11.068
12.2177  11.886
12.237  11.2481
12.2563  11.9563
12.2756  10.927
12.295  10.6245
12.3143  8.53762
12.3336  5.69984
12.3529  2.91653
12.3723  2.87596
12.3916  3.72969
12.4109  2.00413
12.4302  0.863787
12.4496  -1.42786
12.4689  -3.57494
12.4882  -3.9873
12.5075  -3.34636
12.5268  -2.33
12.5462  -0.882345
12.5655  -0.335558
12.5848  1.75492
12.6041  2.44363
12.6235  4.87142
12.6428  8.08767
12.6621  12.1075
12.6814  15.0029
12.7008  19.7619
12.7201  24.8901
12.7394  27.5384
12.7587  28.2022
12.7781  31.3105
12.7974  34.7609
12.8167  36.815
12.836  37.5951
12.8554  38.4865
12.8747  38.6298
12.894  38.5646
12.9133  38.1341
12.9326  35.5024
12.952  33.2502
12.9713  31.386
12.9906  29.9225
13.0099  28.356
13.0293  27.351
13.0486  25.6318
13.0679  24.5695
13.0872  24.8743
13.1066  26.7482
13.1259  28.3471
13.1452  30.4015
13.1645  32.2589
13.1839  35.4332
13.2032  37.6442
13.2225  41.505
13.2418  45.9811
13.2611  53.3395
13.2805  59.3029
13.2998  66.5324
13.3191  73.1109
13.3384  80.5123
13.3578  88.0628
13.3771  99.0436
13.3964  109.524
13.4157  122.854
13.4351  135.829
13.4544  149.786
13.4737  163.339
13.493  175.094
13.5124  186.65
13.5317  194.71
13.551  201.334
13.5703  205.381
13.5897  204.953
13.609  199.474
13.6283  192.246
13.6476  182.672
13.6669  173.21
13.6863  160.823
13.7056  149.669
13.7249  137.24
13.7442  125.004
13.7636  114.395
13.7829  104.402
13.8022  95.6838
13.8215  84.1456
13.8409  75.5207
13.8602  67.634
13.8795  62.7461
13.8988  57.0501
13.9182  53.9201
13.9375  52.4996
13.9568  54.5492
13.9761  55.686
13.9955  57.6004
14.0148  61.1928
14.0341  68.0059
14.0534  77.1079
14.0727  86.8722
14.0921  97.9912
14.1114  109.23
14.1307  125.187
14.15  140.889
14.1694  155.904
14.1887  165.969
14.208  223.528
14.2273  322.026
14.2467  399.721
14.266  485.25
14.2853  513.098
14.3046  550.064
14.324  499.256
14.3433  456.167
14.3626  330.973
14.3819  330.772
14.4013  277.493
14.4206  294.536
14.4399  291.665
14.4592  340.718
14.4785  419.895
14.4979  571.185
14.5172  734.621
14.5365  954.641
14.5558  1125.48
14.5752  1214.65
14.5945  1169.83
14.6138  1045.99
14.6331  870.791
14.6525  637.434
14.6718  415.15
14.6911  243.115
14.7104  149.039
14.7298  108.75
14.7491  93.5607
14.7684  86.9645
14.7877  58.945
14.8071  35.6865
14.8264  31.0164
14.8457  25.2356
14.865  16.3348
14.8843  8.97254
14.9037  6.68657
14.923  11.6992
14.9423  15.5023
14.9616  15.6918
14.981  11.8419
15.0003  10.9964
15.0196  8.74784
15.0389  6.31317
15.0583  4.66794
15.0776  4.43246
15.0969  6.95352
15.1162  7.41606
15.1356  7.82674
15.1549  5.1744
15.1742  2.19593
15.1935  -0.0885992
15.2128  -0.641764
15.2322  -1.07017
15.2515  -1.47748
15.2708  -0.480749
15.2901  -1.32907
15.3095  -2.03908
15.3288  -3.73087
15.3481  -3.03254
15.3674  -2.97518
15.3868  -1.99169
15.4061  -2.06392
15.4254  -0.824066
15.4447  -0.0174718
15.4641  -0.95263
15.4834  -2.5053
15.5027  -1.66563
15.522  0.0502279
15.5414  0.771766
15.5607  1.85687
15.58  1.4043
15.5993  2.31397
15.6186  3.17612
15.638  5.05992
15.6573  5.58448
15.6766  6.32782
15.6959  6.1618
15.7153  6.40449
15.7346  6.4425
15.7539  5.3652
15.7732  4.37349
15.7926  6.44963
15.8119  5.74431
15.8312  5.59168
15.8505  4.39784
15.8699  2.96994
15.8892  0.456299
15.9085  -0.954047
15.9278  -0.658367
15.9472  -0.507647
15.9665  -1.87154
15.9858  -3.6059
16.0051  -2.75884
16.0244  -1.00703
16.0438  -0.875905
16.0631  -1.45379
16.0824  -1.33623
16.1017  -0.922426
16.1211  -0.259419
16.1404  0.575037
16.1597  4.49178
16.179  9.79133
16.1984  13.3348
16.2177  15.9185
16.237  17.7511
16.2563  18.6465
16.2757  18.9977
16.295  22.366
16.3143  28.458
16.3336  34.4084
16.353  39.639
16.3723  43.9406
16.3916  48.9305
16.4109  55.0145
16.4302  61.2704
16.4496  75.2531
16.4689  83.7176
16.4882  95.5495
16.5075  99.8066
16.5269  102.667
16.5462  90.6791
16.5655  88.0498
16.5848  89.7458
16.6042  97.4133
16.6235  112.204
16.6428  131.896
16.6621  151.495
16.6815  186.371
16.7008  227.741
16.7201  283.595
16.7394  354.041
16.7587  432.739
16.7781  514.09
16.7974  628.812
16.8167  705.475
16.836  762.519
16.8554  775.081
16.8747  759.88
16.894  717.351
16.9133  634.238
16.9327  541.849
16.952  427.007
16.9713  326.904
16.9906  267.226
17.01  238.813
17.0293  203.098
17.0486  167.539
17.0679  139.443
17.0873  120.447
17.1066  106.023
17.1259  91.8545
17.1452  80.8061
17.1645  76.5056
17.1839  69.772
17.2032  56.5338
17.2225  48.0747
17.2418  47.9892
17.2612  49.6237
17.2805  48.4222
17.2998  48.0974
17.3191  45.4988
17.3385  39.338
17.3578  34.5198
17.3771  30.6538
17.3964  30.209
17.4158  26.9492
17.4351  21.2134
17.4544  12.0674
17.4737  7.52285
17.4931  11.9674
17.5124  20.5953
17.5317  23.8761
17.551  21.7642
17.5703  19.0331
17.5897  17.3052
17.609  17.0242
17.6283  16.4
17.6476  12.895
17.667  9.60201
17.6863  6.67342
17.7056  6.80047
17.7249  4.64037
17.7443  2.32162
17.7636  0.0146187
17.7829  -1.19872
17.8022  -1.99976
17.8216  -4.87661
17.8409  -7.13951
17.8602  -8.45548
17.8795  -8.65425
17.8989  -8.07515
17.9182  -6.35208
17.9375  -4.57237
17.9568  -3.13429
17.9761  -2.1154
17.9955  -0.0987316
18.0148  1.94974
18.0341  3.6833
18.0534  4.73805
18.0728  8.81269
18.0921  12.5723
18.1114  16.1605
18.1307  18.6438
18.1501  23.077
18.1694  27.7761
18.1887  33.2874
18.208  37.7638
18.2274  43.5855
18.2467  48.9501
18.266  55.0654
18.2853  61.6174
18.3046  69.253
18.324  76.9412
18.3433  83.1643
18.3626  90.3944
18.3819  97.7242
18.4013  104.572
18.4206  109.609
18.4399  115.209
18.4592  120.696
18.4786  127.927
18.4979  134.999
18.5172  143.531
18.5365  150.452
18.5559  157.706
18.5752  164.144
18.5945  172.198
18.6138  178.926
18.6332  182.217
18.6525  185.118
18.6718  189.222
18.6911  193.519
18.7104  196.868
18.7298  201.205
18.7491  203.825
18.7684  207.188
18.7877  207.702
18.8071  207.395
18.8264  205.366
18.8457  205.234
18.865  205.31
18.8844  206.543
18.9037  206.027
18.923  204.319
18.9423  202.691
18.9617  202.092
18.981  200.408
19.0003  199.329
19.0196  199.529
19.039  197.963
19.0583  195.481
19.0776  191.17
19.0969  187.923
19.1162  185.862
19.1356  183.226
19.1549  178.025
19.1742  170.118
19.1935  162.591
19.2129  156.246
19.2322  149.74
19.2515  143.183
19.2708  135.797
19.2902  129.106
19.3095  121.496
19.3288  114.208
19.3481  107.131
19.3675  99.4454
19.3868  91.2626
19.4061  83.8953
19.4254  76.8887
19.4448  72.1542
19.4641  67.5073
19.4834  63.1622
19.5027  57.3838
19.522  52.0701
19.5414  47.3234
19.5607  43.4913
19.58  38.6073
19.5993  34.915
19.6187  31.6282
19.638  28.5818
19.6573  25.6874
19.6766  22.8196
19.696  20.9032
19.7153  17.2828
19.7346  16.7167
19.7539  16.781
19.7733  15.708
19.7926  13.8329
19.8119  13.164
19.8312  13.6093
19.8505  12.1759
19.8699  10.253
19.8892  8.55707
19.9085  8.24893
19.9278  7.67957
19.9472  7.63409
19.9665  5.50409
19.9858  4.9647
20.0051  4.5593
20.0245  5.30913
20.0438  4.23891
20.0631  4.13323
20.0824  3.74966
20.1018  2.33976
20.1211  0.314602
20.1404  -0.782088
20.1597  0.122811
20.1791  -0.378441
20.1984  -0.417126
20.2177  -0.861
20.237  -1.23324
20.2563  -2.73003
20.2757  -3.76034
20.295  -3.12684
20.3143  -3.16215
20.3336  -4.59162
20.353  -4.32969
20.3723  -4.71871
20.3916  -4.33752
20.4109  -3.6501
20.4303  -1.74904
20.4496  -1.3728
20.4689  -2.41191
20.4882  -4.5263
20.5076  -4.56167
20.5269  -2.57918
20.5462  0.0688029
20.5655  1.34881
20.5849  1.5153
20.6042  1.78494
20.6235  2.50384
20.6428  5.83482
20.6621  6.33869
20.6815  6.30385
20.7008  5.601
20.7201  6.24933
20.7394  7.49681
20.7588  9.50867
20.7781  11.7493
20.7974  12.4222
20.8167  14.211
20.8361  15.3609
20.8554  15.5085
20.8747  15.1997
20.894  16.8306
20.9134  17.8937
20.9327  19.3187
20.952  19.596
20.9713  20.6908
20.9907  21.5978
21.01  22.2416
21.0293  22.8159
21.0486  24.9866
21.0679  26.2406
21.0873  26.0784
21.1066  22.4178
21.1259  21.9803
21.1452  24.323
21.1646  25.8454
21.1839  25.7989
21.2032  23.9745
21.2225  21.9277
21.2419  19.9148
21.2612  19.1697
21.2805  18.9315
21.2998  19.309
21.3192  19.0406
21.3385  15.8528
21.3578  13.5975
21.3771  13.0045
21.3965  12.6221
21.4158  11.0473
21.4351  9.4867
21.4544  6.3032
21.4737  3.66269
21.4931  2.2115
21.5124  3.33905
21.5317  5.17085
21.551  4.51081
21.5704  3.99607
21.5897  1.191
21.609  0.263189
21.6283  -2.37856
21.6477  -2.13529
21.667  0.758691
21.6863  3.44942
21.7056  4.82146
21.725  3.75277
21.7443  3.22579
21.7636  4.87189
21.7829  6.50921
21.8022  8.39094
21.8216  8.7703
21.8409  8.93027
21.8602  9.38776
21.8795  10.0735
21.8989  11.0371
21.9182  10.6181
21.9375  10.352
21.9568  10.4622
21.9762  10.5428
21.9955  10.1882
22.0148  11.1828
22.0341  11.998
22.0535  12.4111
22.0728  12.3443
22.0921  13.508
22.1114  15.9738
22.1308  18.4077
22.1501  19.6963
22.1694  18.6078
22.1887  20.1278
22.208  22.9873
22.2274  24.1811
22.2467  24.1311
22.266  24.8939
22.2853  26.635
22.3047  29.5065
22.324  32.5589
22.3433  32.8722
22.3626  32.9729
22.382  33.0559
22.4013  35.7863
22.4206  39.0012
22.4399  41.3719
22.4593  40.5349
22.4786  39.6941
22.4979  38.9647
22.5172  39.0947
22.5366  40.3818
22.5559  41.968
22.5752  43.6375
22.5945  43.0453
22.6138  41.3075
22.6332  40.1636
22.6525  37.5775
22.6718  35.6242
22.6911  33.8562
22.7105  34.1496
22.7298  32.747
22.7491  31.6049
22.7684  30.7763
22.7878  27.8671
22.8071  25.3701
22.8264  22.9598
22.8457  22.3111
22.8651  20.5843
22.8844  18.7648
22.9037  17.2498
22.923  17.3776
22.9424  19.0909
22.9617  19.3044
22.981  17.9282
23.0003  14.958
23.0196  11.992
23.039  9.52259
23.0583  12.9044
23.0776  16
23.0969  17.8767
23.1163  18.4101
23.1356  20.623
23.1549  23.5122
23.1742  24.9773
23.1936  24.4253
23.2129  24.8673
23.2322  26.8635
23.2515  28.6149
23.2709  30.0048
23.2902  31.3264
23.3095  34.2335
23.3288  38.2399
23.3481  42.7219
23.3675  47.8041
23.3868  50.4834
23.4061  53.9608
23.4254  54.5729
23.4448  52.8025
23.4641  49.6124
23.4834  53.7025
23.5027  61.9983
23.5221  66.0528
23.5414  69.2193
23.5607  77.3556
23.58  91.8055
23.5994  103.654
23.6187  105.988
23.638  106.373
23.6573  113.696
23.6767  120.901
23.696  123.812
23.7153  125.918
23.7346  138.439
23.7539  160.587
23.7733  182.632
23.7926  207.962
23.8119  262.939
23.8312  344.936
23.8506  443.026
23.8699  546.798
23.8892  652.358
23.9085  734.647
23.9279  774.073
23.9472  795.446
23.9665  780.565
23.9858  727.896
24.0052  617.411
24.0245  512.795
24.0438  395.054
24.0631  276.38
24.0825  193.108
24.1018  160.421
24.1211  140.407
24.1404  108.432
24.1597  73.9902
24.1791  44.769
24.1984  29.8641
24.2177  24.1978
24.237  22.4736
24.2564  23.5893
24.2757  20.3948
24.295  14.3322
24.3143  9.58897
24.3337  9.00347
24.353  10.1611
24.3723  7.64148
24.3916  5.79036
24.411  2.34734
24.4303  1.75581
24.4496  2.60018
24.4689  3.66454
24.4883  2.64946
24.5076  0.87775
24.5269  0.94076
24.5462  0.728393
24.5655  0.273111
24.5849  -1.21661
24.6042  -0.721037
24.6235  1.34477
24.6428  3.56381
24.6622  1.43386
24.6815  0.682732
24.7008  -1.6507
24.7201  -1.83587
24.7395  1.22454
24.7588  4.50338
24.7781  5.53389
24.7974  6.54103
24.8168  6.01692
24.8361  6.77728
24.8554  4.2341
24.8747  3.2536
24.894  0.520948
24.9134  1.32666
24.9327  2.17377
24.952  2.58648
24.9713  1.83785
24.9907  1.78243
25.01  0.134021
25.0293  -0.256941
25.0486  1.85588
25.068  3.29513
25.0873  2.34189
25.1066  0.549588
25.1259  1.25355
25.1453  2.61444
25.1646  2.95299
25.1839  1.9851
25.2032  1.38409
25.2226  -0.965433
25.2419  -0.74144
25.2612  0.654568
25.2805  2.67351
25.2998  1.55985
25.3192  -0.83927
25.3385  -0.978907
25.3578  0.429637
25.3771  0.21077
25.3965  0.703852
25.4158  1.17212
25.4351  2.32708
25.4544  3.12076
25.4738  3.3355
25.4931  4.31935
25.5124  2.79824
25.5317  1.61847
25.5511  -0.0299484
25.5704  1.41794
25.5897  1.51826
25.609  0.49137
25.6284  1.45601
25.6477  2.24591
25.667  3.0204
25.6863  4.13037
25.7056  3.08235
25.725  3.35202
25.7443  4.35829
25.7636  8.53412
25.7829  11.2594
25.8023  12.9414
25.8216  12.9168
25.8409  13.3088
25.8602  17.0163
25.8796  18.6626
25.8989  18.5865
25.9182  15.5629
25.9375  19.2674
25.9569  25.046
25.9762  30.7132
25.9955  33.3105
26.0148  35.1665
26.0342  34.6317
26.0535  34.8218
26.0728  36.0923
26.0921  41.9058
26.1114  46.6008
26.1308  50.532
26.1501  53.3265
26.1694  60.6804
26.1887  66.0906
26.2081  67.0591
26.2274  65.9967
26.2467  68.0729
26.266  67.7762
26.2854  66.7225
26.3047  64.3548
26.324  58.4913
26.3433  52.1
26.3627  49.2696
26.382  48.8895
26.4013  45.9324
26.4206  42.1506
26.4399  40.2608
26.4593  40.4521
26.4786  40.1873
26.4979  41.7843
26.5172  42.4053
26.5366  46.6832
26.5559  47.8826
26.5752  47.8931
26.5945  46.1506
26.6139  49.4524
26.6332  49.2869
26.6525  48.1796
26.6718  46.7494
26.6912  49.3163
26.7105  52.7259
26.7298  55.4294
26.7491  56.674
26.7685  55.0719
26.7878  56.0295
26.8071  56.3282
26.8264  58.5929
26.8457  58.7745
26.8651  61.958
26.8844  63.8936
26.9037  67.0535
26.923  69.1592
26.9424  72.125
26.9617  72.2896
26.981  73.1946
27.0003  72.649
27.0197  76.9155
27.039  79.9505
27.0583  83.2391
27.0776  83.4461
27.097  82.0929
27.1163  84.3672
27.1356  88.2845
27.1549  92.0814
27.1743  92.1359
27.1936  95.4287
27.2129  99.7522
27.2322  102.654
27.2515  102.798
27.2709  102.742
27.2902  101.292
27.3095  102.859
27.3288  106.964
27.3482  111.196
27.3675  110.525
27.3868  110.103
27.4061  112.43
27.4255  116.71
27.4448  116.596
27.4641  113.829
27.4834  109.762
27.5028  100.917
27.5221  92.616
27.5414  82.1004
27.5607  82.8806
27.5801  84.4669
27.5994  84.4982
27.6187  72.9792
27.638  51.202
27.6573  42.1903
27.6767  41.4389
27.696  35.8489
27.7153  15.0821
27.7346  -3.12686
27.754  10.605
27.7733  14.3718
27.7926  9.65695
27.8119  10.9747
27.8313  19.3474
27.8506  30.9856
27.8699  53.3585
27.8892  94.7598
27.9086  141.376
27.9279  162.522
27.9472  211.195
27.9665  283.192
27.9859  344.807
28.0052  406.162
28.0245  465.174
28.0438  518.864
28.0631  478.283
28.0825  477.33
28.1018  534.566
28.1211  593.587
28.1404  611.555
28.1598  585.688
28.1791  527.714
28.1984  453.012
28.2177  414.67
28.2371  523.446
28.2564  547.619
28.2757  503.901
28.295  413.027
28.3144  328.262
28.3337  253.368
28.353  204.798
28.3723  165.145
28.3916  134.279
28.411  115.405
28.4303  95.2809
28.4496  80.1843
28.4689  67.929
28.4883  66.182
28.5076  63.1137
28.5269  58.9936
28.5462  50.3143
28.5656  42.3106
28.5849  37.8541
28.6042  39.3326
28.6235  42.2177
28.6429  44.682
28.6622  41.1878
28.6815  38.9663
28.7008  35.4754
28.7202  35.0654
28.7395  33.4545
28.7588  33.4031
28.7781  34.4239
28.7974  32.2319
28.8168  27.9982
28.8361  24.4333
28.8554  25.944
28.8747  26.2933
28.8941  23.1577
28.9134  14.7571
28.9327  12.6637
28.952  10.3647
28.9714  5.00888
28.9907  -0.663158
29.01  2.43001
29.0293  11.5191
29.0487  18.9755
29.068  14.9744
29.0873  4.59466
29.1066  0.00155041
29.126  2.00413
29.1453  8.25461
29.1646  11.7355
29.1839  11.8273
29.2032  2.78068
29.2226  -2.04801
29.2419  -3.64901
29.2612  -5.02611
29.2805  -6.67751
29.2999  -2.90931
29.3192  -1.1951
29.3385  -0.28878
29.3578  0.172812
29.3772  -2.97572
29.3965  -2.40113
29.4158  5.54954
29.4351  9.05491
29.4545  7.50593
29.4738  2.66956
29.4931  -2.28805
29.5124  -10.137
29.5318  -6.08444
29.5511  -3.02274
29.5704  4.8787
29.5897  9.80603
29.609  -5.84666