File: Courses/Advance project (MSE)/Mo2Ti2C3/XRD/data/P4  0001.dat
4.18115  5.85954
4.20044  6.57599
4.21974  6.88878
4.23903  7.35001
4.25832  5.36833
4.27762  3.196
4.29691  0.40311
4.3162  0.645779
4.3355  2.64217
4.35479  4.51751
4.37408  3.09574
4.39338  1.74843
4.41267  2.51159
4.43197  2.06621
4.45126  0.553029
4.47055  -0.836057
4.48985  0.808936
4.50914  4.70302
4.52843  6.92409
4.54773  7.75687
4.56702  10.7523
4.58631  18.8829
4.60561  35.9374
4.6249  54.5766
4.64419  68.3661
4.66349  70.293
4.68278  61.0951
4.70207  46.1487
4.72137  31.5253
4.74066  19.5486
4.75995  12.2114
4.77925  7.93659
4.79854  3.75731
4.81783  2.51485
4.83713  5.20484
4.85642  7.13089
4.87571  14.1769
4.89501  23.6801
4.9143  36.9286
4.93359  48.207
4.95289  52.6613
4.97218  50.0711
4.99147  40.2281
5.01077  30.6773
5.03006  21.8359
5.04935  12.2263
5.06865  5.16691
5.08794  0.170895
5.10723  -0.676235
5.12653  -1.89441
5.14582  -2.13971
5.16511  -0.645205
5.18441  -0.285675
5.2037  0.847256
5.22299  -0.703283
5.24229  -0.66633
5.26158  1.44844
5.28087  2.27613
5.30017  1.36504
5.31946  -1.0749
5.33875  1.29515
5.35805  3.80833
5.37734  8.89999
5.39664  12.0262
5.41593  16.529
5.43522  19.808
5.45452  21.7766
5.47381  26.1944
5.4931  29.9135
5.5124  33.4207
5.53169  34.8377
5.55098  37.6529
5.57028  41.5883
5.58957  45.9902
5.60886  47.8813
5.62816  49.5012
5.64745  46.789
5.66674  44.3626
5.68604  44.1686
5.70533  43.8476
5.72462  40.33
5.74392  38.1874
5.76321  36.6504
5.7825  33.7695
5.8018  29.2431
5.82109  25.3476
5.84038  23.8881
5.85968  20.7227
5.87897  18.9558
5.89826  16.3415
5.91756  14.9541
5.93685  14.4981
5.95614  12.6375
5.97544  11.7776
5.99473  10.67
6.01402  11.3812
6.03332  12.6712
6.05261  13.0312
6.0719  11.1045
6.0912  9.50774
6.11049  8.49994
6.12978  12.8222
6.14908  16.4883
6.16837  21.0606
6.18766  24.35
6.20696  26.3347
6.22625  28.7893
6.24554  29.7046
6.26484  29.3313
6.28413  26.1053
6.30342  23.8488
6.32272  20.1685
6.34201  20.0751
6.3613  18.3675
6.3806  19.5419
6.39989  21.5097
6.41919  23.8193
6.43848  24.5907
6.45777  23.7775
6.47707  21.1901
6.49636  17.5575
6.51565  16.6118
6.53495  14.3328
6.55424  11.7874
6.57353  8.22504
6.59283  6.85181
6.61212  6.33732
6.63141  3.46387
6.65071  1.25806
6.67  -1.34052
6.68929  -2.22616
6.70859  -3.99517
6.72788  -3.36878
6.74717  -1.94267
6.76647  -0.789999
6.78576  -1.03003
6.80505  -0.0127255
6.82435  1.29306
6.84364  2.34522
6.86293  1.13873
6.88223  0.897534
6.90152  1.34601
6.92081  1.15772
6.94011  -0.0827262
6.9594  -1.84276
6.97869  -0.354796
6.99799  1.78715
7.01728  3.21358
7.03657  1.90042
7.05587  1.29302
7.07516  0.556918
7.09445  0.436231
7.11375  -0.0292826
7.13304  2.92377
7.15233  5.10151
7.17163  5.41654
7.19092  5.13724
7.21021  4.65506
7.22951  6.48338
7.2488  5.15422
7.26809  3.60501
7.28739  2.77716
7.30668  2.56686
7.32597  2.2381
7.34527  1.67932
7.36456  1.09968
7.38386  -0.661592
7.40315  -0.64715
7.42244  -0.235882
7.44174  0.513838
7.46103  -0.685658
7.48032  -0.235362
7.49962  -0.681577
7.51891  -1.93272
7.5382  -2.06524
7.5575  -2.65809
7.57679  -2.6631
7.59608  -2.9851
7.61538  1.13872
7.63467  3.70348
7.65396  6.95144
7.67326  9.00681
7.69255  9.98507
7.71184  11.6795
7.73114  12.7217
7.75043  14.8891
7.76972  15.5735
7.78902  14.024
7.80831  12.5473
7.8276  11.7374
7.8469  14.5428
7.86619  20.1185
7.88548  29.3618
7.90478  41.7787
7.92407  58.9354
7.94336  82.4718
7.96266  109.805
7.98195  137.491
8.00124  160.976
8.02054  174.393
8.03983  177.19
8.05912  167.194
8.07842  154.139
8.09771  132.294
8.117  111.776
8.1363  93.9433
8.15559  81.1548
8.17488  70.1065
8.19418  61.3281
8.21347  56.7651
8.23276  52.2982
8.25206  46.9703
8.27135  41.6459
8.29064  38.792
8.30994  35.3661
8.32923  31.0815
8.34853  23.539
8.36782  17.4069
8.38711  12.5775
8.40641  8.60962
8.4257  6.06845
8.44499  3.49032
8.46429  1.16748
8.48358  0.408083
8.50287  -1.47005
8.52217  0.0299574
8.54146  -1.19474
8.56075  -0.429212
8.58005  -0.0599294
8.59934  2.02778
8.61863  4.67631
8.63793  8.68502
8.65722  11.3728
8.67651  16.5571
8.69581  23.8437
8.7151  36.3304
8.73439  51.3222
8.75369  69.7376
8.77298  102.987
8.79227  156.047
8.81157  243.243
8.83086  374.399
8.85015  536.581
8.86945  719.396
8.88874  857.332
8.90803  919.264
8.92733  880.68
8.94662  759.613
8.96591  593.615
8.98521  440.917
9.0045  307.087
9.02379  214.255
9.04309  149.501
9.06238  100.092
9.08167  61.8187
9.10097  35.8333
9.12026  27.0274
9.13955  25.8106
9.15885  26.7359
9.17814  24.1576
9.19743  25.919
9.21673  31.474
9.23602  41.6852
9.25531  52.7011
9.27461  63.2184
9.2939  71.9073
9.31319  75.9917
9.33249  74.275
9.35178  70.9394
9.37108  61.636
9.39037  51.1605
9.40966  37.0318
9.42896  27.9497
9.44825  21.6706
9.46754  18.0076
9.48684  17.931
9.50613  20.3108
9.52542  24.398
9.54472  31.6306
9.56401  40.4501
9.5833  49.4265
9.6026  54.6486
9.62189  57.9277
9.64118  59.7058
9.66048  58.715
9.67977  54.2237
9.69906  47.8902
9.71836  42.1311
9.73765  35.7262
9.75694  30.7157
9.77624  24.0755
9.79553  22.3096
9.81482  19.5603
9.83412  20.5616
9.85341  20.6757
9.8727  22.8344
9.892  23.7596
9.91129  24.6724
9.93058  25.3893
9.94988  25.2451
9.96917  23.664
9.98846  19.0389
10.0078  13.6162
10.0271  9.14385
10.0463  3.71052
10.0656  1.93449
10.0849  -0.836257
10.1042  -1.90433
10.1235  -3.07012
10.1428  -3.52001
10.1621  -5.50597
10.1814  -6.66132
10.2007  -7.78998
10.22  -8.03982
10.2393  -8.55331
10.2586  -10.3266
10.2779  -9.74118
10.2972  -8.65026
10.3165  -4.03899
10.3357  -1.56603
10.355  0.243242
10.3743  4.42279
10.3936  12.3938
10.4129  22.9413
10.4322  32.9248
10.4515  42.8963
10.4708  51.5951
10.4901  63.2397
10.5094  78.1274
10.5287  95.3009
10.548  116.339
10.5673  132.55
10.5866  144.993
10.6059  154.043
10.6251  162.404
10.6444  169.736
10.6637  175.496
10.683  182.244
10.7023  189.596
10.7216  195.692
10.7409  205.327
10.7602  212.1
10.7795  220.137
10.7988  228.716
10.8181  238.12
10.8374  246.774
10.8567  251.783
10.876  254.401
10.8953  254.66
10.9145  250.947
10.9338  243.45
10.9531  230.539
10.9724  213.019
10.9917  193.584
11.011  174.625
11.0303  155.599
11.0496  133.854
11.0689  114.833
11.0882  98.8977
11.1075  85.5178
11.1268  77.4565
11.1461  72.5235
11.1654  70.7339
11.1847  69.6113
11.2039  74.0796
11.2232  82.1856
11.2425  91.987
11.2618  104.427
11.2811  120.79
11.3004  141.36
11.3197  164.645
11.339  191.105
11.3583  223.788
11.3776  264.433
11.3969  312.585
11.4162  367.362
11.4355  427.896
11.4548  492.986
11.4741  554.956
11.4933  613.13
11.5126  659.103
11.5319  685.592
11.5512  687.953
11.5705  672.903
11.5898  642.429
11.6091  601.23
11.6284  547.333
11.6477  484.897
11.667  422.349
11.6863  361.913
11.7056  307.413
11.7249  258.492
11.7442  215.503
11.7635  176.421
11.7827  143.296
11.802  114.012
11.8213  90.5272
11.8406  71.0845
11.8599  56.412
11.8792  44.2766
11.8985  33.7554
11.9178  25.5274
11.9371  20.6693
11.9564  17.8135
11.9757  16.6783
11.995  16.583
12.0143  16.1832
12.0336  16.6932
12.0529  14.0799
12.0722  13.0617
12.0914  13.6716
12.1107  13.7446
12.13  12.7294
12.1493  12.0106
12.1686  15.3413
12.1879  20.89
12.2072  24.386
12.2265  27.0425
12.2458  34.0247
12.2651  42.0741
12.2844  52.5371
12.3037  60.5309
12.323  69.4314
12.3423  78.7421
12.3616  91.3013
12.3808  104.844
12.4001  118.366
12.4194  129.628
12.4387  141.594
12.458  153.512
12.4773  163.063
12.4966  170.949
12.5159  172.784
12.5352  169.586
12.5545  163.449
12.5738  152.279
12.5931  141.718
12.6124  130.568
12.6317  120.415
12.651  108.959
12.6702  95.4546
12.6895  84.0334
12.7088  74.4599
12.7281  65.604
12.7474  55.3179
12.7667  45.9154
12.786  38.9037
12.8053  34.844
12.8246  31.5764
12.8439  29.1946
12.8632  27.4062
12.8825  27.1526
12.9018  27.537
12.9211  30.1743
12.9404  33.9812
12.9596  39.5753
12.9789  47.8277
12.9982  60.2756
13.0175  78.7158
13.0368  104.188
13.0561  136.631
13.0754  175.434
13.0947  222.76
13.114  272.674
13.1333  324.876
13.1526  372.359
13.1719  412.135
13.1912  440.723
13.2105  460.336
13.2298  469.8
13.249  473.009
13.2683  470.685
13.2876  466.923
13.3069  458.358
13.3262  446.537
13.3455  430.343
13.3648  411.8
13.3841  388.127
13.4034  361.017
13.4227  333.429
13.442  307.096
13.4613  276.995
13.4806  246.96
13.4999  218.196
13.5192  192.291
13.5384  169.954
13.5577  150.471
13.577  133.503
13.5963  113.904
13.6156  98.0854
13.6349  85.4384
13.6542  76.8617
13.6735  68.2688
13.6928  61.0415
13.7121  55.8183
13.7314  51.8685
13.7507  53.6198
13.77  56.9418
13.7893  61.9658
13.8086  67.9689
13.8279  78.2244
13.8471  88.0249
13.8664  104.593
13.8857  127.464
13.905  156.314
13.9243  179.969
13.9436  199.888
13.9629  210.053
13.9822  199.675
14.0015  148.062
14.0208  71.1853
14.0401  30.9795
14.0594  105.01
14.0787  134.25
14.098  141.204
14.1173  171.082
14.1365  204.355
14.1558  250.46
14.1751  296.113
14.1944  345.664
14.2137  419.933
14.233  474.059
14.2523  491.582
14.2716  423.121
14.2909  337.596
14.3102  241.426
14.3295  169.829
14.3488  116.905
14.3681  95.4014
14.3874  77.9614
14.4067  55.8256
14.4259  12.4722
14.4452  7.73141
14.4645  15.4259
14.4838  24.3619
14.5031  28.1335
14.5224  28.0713
14.5417  27.1435
14.561  24.0709
14.5803  14.9677
14.5996  0.262023
14.6189  -5.41477
14.6382  -4.90847
14.6575  -3.04532
14.6768  -2.34662
14.6961  -0.570765
14.7153  -0.788615
14.7346  1.81908
14.7539  1.6629
14.7732  5.12458
14.7925  8.76509
14.8118  11.9056
14.8311  13.0183
14.8504  7.1243
14.8697  0.497432
14.889  -3.28935
14.9083  2.09251
14.9276  8.98181
14.9469  14.2418
14.9662  14.9567
14.9855  13.7766
15.0047  13.4385
15.024  12.8684
15.0433  13.4295
15.0626  15.2318
15.0819  17.2517
15.1012  21.0948
15.1205  22.7048
15.1398  25.1421
15.1591  28.2669
15.1784  31.1524
15.1977  34.6049
15.217  39.1289
15.2363  43.8696
15.2556  49.5483
15.2749  55.0976
15.2941  58.7123
15.3134  60.8648
15.3327  61.5109
15.352  59.9008
15.3713  52.9639
15.3906  47.2601
15.4099  40.5758
15.4292  35.9292
15.4485  30.3358
15.4678  24.6123
15.4871  19.8775
15.5064  16.7181
15.5257  15.0659
15.545  10.8372
15.5643  5.87044
15.5835  -0.0483553
15.6028  -2.46567
15.6221  -3.54338
15.6414  -4.06443
15.6607  -5.1166
15.68  -4.88892
15.6993  -4.61434
15.7186  -5.13898
15.7379  -5.62657
15.7572  -6.29029
15.7765  -6.53324
15.7958  -4.64833
15.8151  -6.31659
15.8344  -7.15015
15.8537  -5.67953
15.873  -1.65591
15.8922  0.667898
15.9115  3.22906
15.9308  4.81636
15.9501  6.71303
15.9694  6.04682
15.9887  7.47921
16.008  12.1534
16.0273  18.9747
16.0466  19.3846
16.0659  20.1144
16.0852  71.642
16.1045  130.763
16.1238  103.186
16.1431  49.1773
16.1624  28.535
16.1816  34.1339
16.2009  49.5311
16.2202  64.955
16.2395  63.5846
16.2588  70.1028
16.2781  84.1834
16.2974  132.373
16.3167  170.496
16.336  174.171
16.3553  212.902
16.3746  278.415
16.3939  373.778
16.4132  432.982
16.4325  571.861
16.4518  613.374
16.471  596.112
16.4903  535.427
16.5096  403.2
16.5289  287.911
16.5482  214.063
16.5675  140.652
16.5868  130.606
16.6061  117.281
16.6254  100.043
16.6447  84.28
16.664  90.9309
16.6833  89.0599
16.7026  84.7748
16.7219  71.8905
16.7412  76.7096
16.7604  72.2191
16.7797  7.72122
16.799  22.39
16.8183  40.646
16.8376  55.24
16.8569  67.738
16.8762  82.7316
16.8955  102.685
16.9148  125.459
16.9341  152.483
16.9534  181.627
16.9727  211.953
16.992  241.777
17.0113  268.603
17.0306  291.155
17.0498  310.507
17.0691  324.046
17.0884  330.898
17.1077  331.738
17.127  325.884
17.1463  313.608
17.1656  301.341
17.1849  287.263
17.2042  268.6
17.2235  249.752
17.2428  229.899
17.2621  210.351
17.2814  187.884
17.3007  167.023
17.32  146.714
17.3392  126.006
17.3585  107.19
17.3778  88.2599
17.3971  72.4659
17.4164  57.511
17.4357  40.4751
17.455  22.1479
17.4743  9.68067
17.4936  6.26908
17.5129  7.48821
17.5322  7.51725
17.5515  3.66006
17.5708  -2.07117
17.5901  -6.29472
17.6094  -9.02159
17.6286  -10.4699
17.6479  -8.70828
17.6672  -5.52926
17.6865  0.0466857
17.7058  8.0041
17.7251  18.5445
17.7444  31.1422
17.7637  47.1682
17.783  64.5615
17.8023  81.8017
17.8216  97.3249
17.8409  109.248
17.8602  118.881
17.8795  123.22
17.8988  125.61
17.9181  124.059
17.9373  118.88
17.9566  111.927
17.9759  105.554
17.9952  101.715
18.0145  99.3956
18.0338  100.877
18.0531  102.238
18.0724  106.472
18.0917  115.839
18.111  128.694
18.1303  143.566
18.1496  159.34
18.1689  175.257
18.1882  189.136
18.2075  202.89
18.2267  217.633
18.246  231.161
18.2653  241.901
18.2846  247.598
18.3039  250.592
18.3232  250.513
18.3425  245.305
18.3618  236.514
18.3811  227.377
18.4004  215.44
18.4197  203.396
18.439  192.71
18.4583  181.549
18.4776  173.061
18.4969  166.403
18.5161  164.102
18.5354  163.092
18.5547  165.054
18.574  169.218
18.5933  174.576
18.6126  183.174
18.6319  191.532
18.6512  200.876
18.6705  211.215
18.6898  225.068
18.7091  239.192
18.7284  252.984
18.7477  263.716
18.767  275.539
18.7863  283.723
18.8055  289.818
18.8248  293.119
18.8441  294.506
18.8634  292.147
18.8827  285.65
18.902  275.312
18.9213  261.982
18.9406  246.888
18.9599  229.321
18.9792  211.508
18.9985  193.852
19.0178  176.748
19.0371  160
19.0564  142.596
19.0757  126.97
19.0949  112.499
19.1142  99.1235
19.1335  87.3144
19.1528  75.8042
19.1721  66.5316
19.1914  58.9583
19.2107  52.4442
19.23  46.8288
19.2493  43.0013
19.2686  40.647
19.2879  41.0531
19.3072  42.7632
19.3265  47.9368
19.3458  50.5449
19.3651  53.1058
19.3843  56.1712
19.4036  60.889
19.4229  63.91
19.4422  67.4331
19.4615  68.7406
19.4808  68.386
19.5001  64.9088
19.5194  61.6363
19.5387  57.7647
19.558  52.7087
19.5773  47.5376
19.5966  41.2969
19.6159  36.0789
19.6352  31.4955
19.6545  28.8727
19.6737  27.1229
19.693  24.9357
19.7123  21.0397
19.7316  20.1033
19.7509  20.0562
19.7702  20.2828
19.7895  17.7762
19.8088  14.8992
19.8281  12.0288
19.8474  10.3032
19.8667  8.54299
19.886  6.4264
19.9053  3.37113
19.9246  0.913875
19.9439  -0.0806528
19.9632  -3.33526
19.9824  -3.82166
20.0017  -2.07783
20.021  -0.114783
20.0403  -2.29765
20.0596  -3.47557
20.0789  -3.66627
20.0982  -3.55558
20.1175  -4.89757
20.1368  -5.52921
20.1561  -5.14455
20.1754  -5.23439
20.1947  -5.27238
20.214  -5.94908
20.2333  -5.56119
20.2526  -5.68754
20.2718  -5.67004
20.2911  -6.74412
20.3104  -5.90244
20.3297  -4.18665
20.349  -3.15839
20.3683  -2.13946
20.3876  -1.01218
20.4069  1.42565
20.4262  2.63217
20.4455  5.33724
20.4648  6.68998
20.4841  7.95915
20.5034  10.0425
20.5227  13.105
20.542  16.3605
20.5612  19.6945
20.5805  21.9954
20.5998  24.3003
20.6191  28.3098
20.6384  34.2456
20.6577  37.6055
20.677  39.0962
20.6963  39.3527
20.7156  41.7196
20.7349  46.7775
20.7542  50.9114
20.7735  53.8462
20.7928  54.3953
20.8121  57.1066
20.8314  60.6638
20.8506  62.594
20.8699  62.9368
20.8892  65.0339
20.9085  69.8316
20.9278  72.1266
20.9471  71.7975
20.9664  73.9839
20.9857  75.889
21.005  76.5177
21.0243  75.8302
21.0436  76.9368
21.0629  76.8245
21.0822  75.5314
21.1015  71.945
21.1208  69.2457
21.14  69.0434
21.1593  68.2612
21.1786  67.0776
21.1979  64.9959
21.2172  62.8726
21.2365  59.5191
21.2558  60.3517
21.2751  61.9152
21.2944  63.8017
21.3137  64.4855
21.333  66.6447
21.3523  69.2197
21.3716  71.5187
21.3909  73.2831
21.4102  72.4741
21.4294  68.706
21.4487  62.5972
21.468  56.9764
21.4873  52.4402
21.5066  47.7409
21.5259  42.0755
21.5452  33.5467
21.5645  26.9731
21.5838  19.9761
21.6031  14.4119
21.6224  9.27796
21.6417  2.59531
21.661  0.00159647
21.6803  0.825069
21.6996  -0.0154393
21.7189  -0.66385
21.7381  -1.17352
21.7574  -0.125632
21.7767  0.875665
21.796  1.74869
21.8153  3.03018
21.8346  5.10279
21.8539  7.28477
21.8732  11.9415
21.8925  18.6936
21.9118  23.3946
21.9311  27.819
21.9504  31.7734
21.9697  36.0609
21.989  41.1613
22.0083  48.4611
22.0275  55.9302
22.0468  63.1944
22.0661  69.5606
22.0854  75.6661
22.1047  79.9931
22.124  85.0027
22.1433  90.1029
22.1626  93.9207
22.1819  95.4533
22.2012  97.9915
22.2205  98.4719
22.2398  96.3275
22.2591  92.4347
22.2784  88.8588
22.2977  85.4749
22.3169  82.5063
22.3362  78.2196
22.3555  73.6394
22.3748  68.8341
22.3941  64.724
22.4134  62.3391
22.4327  58.6206
22.452  53.9899
22.4713  50.2858
22.4906  47.9024
22.5099  45.7409
22.5292  43.478
22.5485  41.5376
22.5678  41.5031
22.5871  42.3231
22.6063  40.8508
22.6256  41.5349
22.6449  40.6874
22.6642  41.033
22.6835  43.2529
22.7028  47.6664
22.7221  50.878
22.7414  54.3885
22.7607  57.5934
22.78  63.3657
22.7993  68.9973
22.8186  73.8269
22.8379  80.0149
22.8572  86.6911
22.8765  90.9207
22.8957  94.0395
22.915  99.4534
22.9343  104.954
22.9536  109.671
22.9729  111.152
22.9922  108.993
23.0115  106.571
23.0308  100.834
23.0501  97.9036
23.0694  91.9709
23.0887  92.3108
23.108  97.5984
23.1273  117.092
23.1466  141.987
23.1659  166.365
23.1851  193.809
23.2044  232.582
23.2237  288.921
23.243  371.6
23.2623  452.542
23.2816  519.538
23.3009  569.316
23.3202  586.807
23.3395  576.414
23.3588  539.525
23.3781  470.168
23.3974  384.94
23.4167  283.415
23.436  186.03
23.4553  142.744
23.4745  131.154
23.4938  119.926
23.5131  93.6487
23.5324  66.3496
23.5517  47.1493
23.571  34.2731
23.5903  20.461
23.6096  15.3491
23.6289  12.6924
23.6482  12.4901
23.6675  9.78451
23.6868  9.79637
23.7061  6.32952
23.7254  3.06336
23.7447  2.52865
23.764  2.21444
23.7832  1.36834
23.8025  0.800062
23.8218  0.430417
23.8411  0.442993
23.8604  -1.96709
23.8797  -0.552149
23.899  0.36526
23.9183  2.48365
23.9376  3.8532
23.9569  5.14671
23.9762  4.44919
23.9955  2.36332
24.0148  2.37982
24.0341  3.28517
24.0534  3.44966
24.0726  3.78791
24.0919  3.69191
24.1112  6.62773
24.1305  5.82988
24.1498  3.65868
24.1691  1.15278
24.1884  3.22691
24.2077  3.7483
24.227  3.24393
24.2463  3.4638
24.2656  5.33961
24.2849  4.29171
24.3042  0.514937
24.3235  -0.136618
24.3428  2.36872
24.362  2.19428
24.3813  -0.610547
24.4006  -2.74141
24.4199  -4.17248
24.4392  -4.49676
24.4585  -4.24788
24.4778  -2.21919
24.4971  -0.435431
24.5164  1.03765
24.5357  1.69587
24.555  0.755772
24.5743  -0.00285163
24.5936  1.09262
24.6129  4.28807
24.6322  6.83449
24.6514  8.41135
24.6707  10.2103
24.69  10.9784
24.7093  11.4374
24.7286  14.4245
24.7479  16.7239
24.7672  18.6121
24.7865  19.8119
24.8058  21.3113
24.8251  22.6512
24.8444  22.7413
24.8637  21.0476
24.883  19.2426
24.9023  17.5158
24.9216  18.6851
24.9408  20.5186
24.9601  22.4018
24.9794  21.4206
24.9987  18.6303
25.018  18.5854
25.0373  18.0914
25.0566  18.548
25.0759  15.9376
25.0952  12.0307
25.1145  10.9881
25.1338  12.8873
25.1531  12.6987
25.1724  11.469
25.1917  10.7243
25.211  8.41972
25.2302  5.03474
25.2495  3.40294
25.2688  5.06854
25.2881  3.73439
25.3074  3.59771
25.3267  5.35251
25.346  6.5663
25.3653  4.13788
25.3846  3.48969
25.4039  3.40305
25.4232  1.69539
25.4425  0.549867
25.4618  1.67916
25.4811  3.48027
25.5004  4.65075
25.5196  3.29049
25.5389  1.79162
25.5582  -0.455166
25.5775  -0.220061
25.5968  0.363489
25.6161  0.930618
25.6354  1.11136
25.6547  0.549706
25.674  0.120627
25.6933  -1.33088
25.7126  -3.52888
25.7319  -3.21153
25.7512  0.730463
25.7705  3.76949
25.7898  5.87899
25.8091  7.51584
25.8283  9.63408
25.8476  9.65239
25.8669  12.0049
25.8862  13.8679
25.9055  13.5225
25.9248  13.3024
25.9441  14.2288
25.9634  18.8626
25.9827  20.8716
26.002  24.0256
26.0213  25.1114
26.0406  29.2505
26.0599  29.4355
26.0792  31.1653
26.0985  34.4622
26.1177  36.1103
26.137  42.2065
26.1563  48.5381
26.1756  57.239
26.1949  60.1473
26.2142  63.8748
26.2335  65.9092
26.2528  68.0853
26.2721  67.3419
26.2914  67.1211
26.3107  67.0424
26.33  67.5869
26.3493  61.9142
26.3686  61.9813
26.3879  60.9986
26.4071  63.7942
26.4264  67.0854
26.4457  72.6073
26.465  76.1193
26.4843  77.0071
26.5036  78.7853
26.5229  82.3364
26.5422  84.0682
26.5615  84.9608
26.5808  86.3875
26.6001  90.2866
26.6194  94.4448
26.6387  91.7342
26.658  86.8012
26.6773  85.8818
26.6965  85.7236
26.7158  87.8387
26.7351  85.3586
26.7544  87.4881
26.7737  88.6902
26.793  89.2733
26.8123  85.0794
26.8316  86.9226
26.8509  90.8037
26.8702  94.2488
26.8895  94.5004
26.9088  95.878
26.9281  97.784
26.9474  96.683
26.9667  95.0782
26.9859  98.6874
27.0052  101.359
27.0245  104.878
27.0438  110.89
27.0631  121.809
27.0824  135.753
27.1017  145.338
27.121  145.234
27.1403  138.959
27.1596  120.034
27.1789  80.6063
27.1982  54.9929
27.2175  40.6838
27.2368  21.0933
27.2561  34.7663
27.2753  55.8006
27.2946  72.6482
27.3139  102.953
27.3332  145.074
27.3525  189.647
27.3718  213.202
27.3911  222.617
27.4104  225.398
27.4297  225.723
27.449  207.586
27.4683  154.509
27.4876  134.554
27.5069  245.027
27.5262  314.35
27.5455  285.434
27.5647  239.413
27.584  197.644
27.6033  159.98
27.6226  122.548
27.6419  106.999
27.6612  100.493
27.6805  91.2726
27.6998  79.3948
27.7191  67.6058
27.7384  63.0053
27.7577  59.953
27.777  59.7007
27.7963  60.2965
27.8156  57.7762
27.8349  55.9275
27.8542  56.3563
27.8734  59.1943
27.8927  58.1237
27.912  56.4621
27.9313  51.6953
27.9506  52.0647
27.9699  52.6805
27.9892  56.2203
28.0085  56.7093
28.0278  59.385
28.0471  56.1301
28.0664  53.1214
28.0857  51.3943
28.105  46.9203
28.1243  41.3784
28.1436  40.9616
28.1628  45.5382
28.1821  47.0634
28.2014  49.3732
28.2207  47.817
28.24  52.5391
28.2593  53.13
28.2786  48.0719
28.2979  41.6069
28.3172  42.7018
28.3365  44.2124
28.3558  44.1993
28.3751  43.0742
28.3944  37.8422
28.4137  35.1982
28.433  35.7569
28.4522  38.0638
28.4715  34.6908
28.4908  39.6161
28.5101  40.4081
28.5294  46.2403
28.5487  51.628
28.568  65.1221
28.5873  78.1588
28.6066  89.1337
28.6259  98.3938
28.6452  106.436
28.6645  117.317
28.6838  128.344
28.7031  139.846
28.7224  154.722
28.7416  158.973
28.7609  151.184
28.7802  133.89
28.7995  111.674
28.8188  86.777
28.8381  75.6956
28.8574  71.9119
28.8767  71.5836
28.896  74.1673
28.9153  73.6696
28.9346  70.8108
28.9539  62.5147
28.9732  57.3731
28.9925  53.6599
29.0118  52.265
29.031  53.9831
29.0503  50.6756
29.0696  47.7601
29.0889  43.1038
29.1082  49.5661
29.1275  53.8815
29.1468  42.8119
29.1661  32.4292
29.1854  28.9822
29.2047  32.5539
29.224  34.3281
29.2433  39.0925
29.2626  38.6408
29.2819  33.9553
29.3012  31.5438
29.3204  32.0408
29.3397  29.9792
29.359  22.5202
29.3783  19.9019
29.3976  25.406
29.4169  26.3743
29.4362  25.0404
29.4555  22.3699
29.4748  21.0911
29.4941  8.23642
29.5134  1.11849
29.5327  -2.75809
29.552  2.07406
29.5713  3.73047
29.5906  11.9642
29.6098  8.58218
29.6291  6.50882
29.6484  -6.24159
29.6677  -9.34597
29.687  -4.90047
29.7063  -0.0558434
29.7256  5.14366
29.7449  4.33712
29.7642  0.220407
29.7835  -5.43419
29.8028  2.08715