File: Courses/Advance project (MSE)/Mo2Ti2C3/XRD/data/P5  0001.dat
4.1913  6.37465
4.21065  4.71366
4.23001  5.29775
4.24937  6.01606
4.26873  6.0543
4.28809  5.24824
4.30744  3.75845
4.3268  4.09348
4.34616  4.38566
4.36552  4.05652
4.38488  1.54125
4.40423  -0.277446
4.42359  0.324897
4.44295  -0.421087
4.46231  1.56136
4.48166  1.78907
4.50102  2.10264
4.52038  0.739974
4.53974  -0.133353
4.5591  1.90535
4.57845  7.91143
4.59781  13.826
4.61717  22.6937
4.63653  34.6418
4.65589  44.7476
4.67524  49.0326
4.6946  46.8752
4.71396  39.5412
4.73332  30.9303
4.75267  21.9478
4.77203  12.9289
4.79139  5.74749
4.81075  2.61051
4.83011  2.32474
4.84946  3.74156
4.86882  4.70686
4.88818  11.7058
4.90754  19.3424
4.92689  29.9627
4.94625  37.6466
4.96561  40.8887
4.98497  39.4257
5.00433  32.1694
5.02368  24.9412
5.04304  14.9234
5.0624  9.8087
5.08176  5.10097
5.10112  3.26203
5.12047  0.881163
5.13983  -0.825271
5.15919  0.591706
5.17855  1.07499
5.1979  -0.840407
5.21726  -2.8308
5.23662  -2.18443
5.25598  -1.21447
5.27534  -0.936263
5.29469  -0.798418
5.31405  -2.0997
5.33341  -0.572894
5.35277  4.45176
5.37213  7.02232
5.39148  9.08467
5.41084  8.84058
5.4302  9.6794
5.44956  11.9325
5.46891  14.3865
5.48827  15.8169
5.50763  16.7371
5.52699  18.6274
5.54635  19.3165
5.5657  19.3125
5.58506  19.377
5.60442  20.2101
5.62378  21.8215
5.64313  20.0915
5.66249  19.8129
5.68185  19.6288
5.70121  22.7354
5.72057  24.322
5.73992  24.9486
5.75928  24.456
5.77864  22.5315
5.798  20.9616
5.81736  20.1037
5.83671  19.2156
5.85607  16.6434
5.87543  15.9842
5.89479  15.6881
5.91414  13.3693
5.9335  13.2273
5.95286  10.3136
5.97222  8.90397
5.99158  9.97604
6.01093  12.2953
6.03029  13.8606
6.04965  15.2362
6.06901  15.2082
6.08837  12.7879
6.10772  12.1378
6.12708  12.9949
6.14644  13.3145
6.1658  15.1687
6.18515  14.1058
6.20451  14.8116
6.22387  14.6441
6.24323  14.671
6.26259  13.9291
6.28194  12.9615
6.3013  12.2438
6.32066  9.29438
6.34002  9.71156
6.35938  8.20803
6.37873  8.10406
6.39809  6.28349
6.41745  4.62784
6.43681  4.41699
6.45616  4.11703
6.47552  3.18835
6.49488  1.16967
6.51424  1.06205
6.5336  1.22782
6.55295  1.57491
6.57231  0.486039
6.59167  1.03598
6.61103  1.45639
6.63038  1.60555
6.64974  1.02763
6.6691  1.60357
6.68846  0.703158
6.70782  -0.380916
6.72717  -1.62693
6.74653  -1.84102
6.76589  -1.83962
6.78525  -2.78659
6.80461  -2.48598
6.82396  -2.98852
6.84332  -1.03177
6.86268  -2.04603
6.88204  -0.271535
6.90139  -0.653965
6.92075  -1.75289
6.94011  -1.44077
6.95947  -2.06699
6.97883  -0.453489
6.99818  0.969781
7.01754  2.33573
7.0369  1.82306
7.05626  1.83671
7.07562  1.66413
7.09497  1.52166
7.11433  0.711051
7.13369  2.28503
7.15305  2.67697
7.1724  1.88933
7.19176  1.8092
7.21112  3.94972
7.23048  4.46083
7.24984  3.43283
7.26919  1.63854
7.28855  1.86926
7.30791  2.35669
7.32727  3.81468
7.34663  4.63335
7.36598  4.62713
7.38534  4.29748
7.4047  3.30729
7.42406  2.78553
7.44341  0.98671
7.46277  -1.01041
7.48213  -1.48419
7.50149  -2.99813
7.52085  -3.41328
7.5402  -3.07948
7.55956  -2.56356
7.57892  -1.79616
7.59828  -2.08538
7.61763  -0.291604
7.63699  1.14708
7.65635  2.20166
7.67571  2.30102
7.69507  1.83583
7.71442  4.91557
7.73378  7.23692
7.75314  11.0772
7.7725  11.684
7.79186  13.0356
7.81121  11.9853
7.83057  11.4432
7.84993  12.2782
7.86929  16.0202
7.88864  23.5672
7.908  34.4277
7.92736  47.3464
7.94672  62.5467
7.96608  79.4405
7.98543  96.787
8.00479  113.709
8.02415  125.863
8.04351  131.455
8.06287  130.301
8.08222  124.522
8.10158  113.107
8.12094  98.5324
8.1403  83.1658
8.15965  68.049
8.17901  57.2931
8.19837  49.6259
8.21773  46.1542
8.23709  43.9675
8.25644  42.6803
8.2758  43.1139
8.29516  43.8996
8.31452  43.2791
8.33387  41.7461
8.35323  40.7963
8.37259  37.5872
8.39195  32.3377
8.41131  28.0126
8.43066  23.7153
8.45002  18.8946
8.46938  16.9347
8.48874  17.8905
8.5081  15.1414
8.52745  11.8008
8.54681  7.34134
8.56617  5.05427
8.58553  2.77175
8.60488  1.3086
8.62424  -0.597563
8.6436  -1.51258
8.66296  -1.02502
8.68232  2.15083
8.70167  7.06531
8.72103  11.8855
8.74039  17.4105
8.75975  26.9851
8.77911  42.6563
8.79846  66.7788
8.81782  102.557
8.83718  156.998
8.85654  229.106
8.87589  323.625
8.89525  433.831
8.91461  537.375
8.93397  607.835
8.95333  614.511
8.97268  566.906
8.99204  472.675
9.0114  368.511
9.03076  272.702
9.05012  193.474
9.06947  129.023
9.08883  78.9469
9.10819  48.5751
9.12755  38.5925
9.1469  33.895
9.16626  27.1405
9.18562  19.4005
9.20498  16.7021
9.22434  18.0336
9.24369  20.082
9.26305  23.0629
9.28241  28.8671
9.30177  35.1635
9.32112  42.6467
9.34048  49.262
9.35984  53.2919
9.3792  52.7071
9.39856  44.5668
9.41791  33.5018
9.43727  26.1512
9.45663  19.4886
9.47599  16.2809
9.49535  12.9769
9.5147  14.6917
9.53406  16.3112
9.55342  19.3393
9.57278  22.3694
9.59213  28.301
9.61149  33.2367
9.63085  40.9487
9.65021  45.9273
9.66957  48.7562
9.68892  51.1655
9.70828  52.869
9.72764  55.4205
9.747  56.0587
9.76636  54.5323
9.78571  51.6314
9.80507  48.675
9.82443  43.6604
9.84379  40.7275
9.86314  37.2018
9.8825  33.3766
9.90186  28.5114
9.92122  26.2491
9.94058  25.2649
9.95993  23.408
9.97929  20.7091
9.99865  16.2606
10.018  13.2863
10.0374  9.77855
10.0567  6.82792
10.0761  3.26593
10.0954  -0.559763
10.1148  -1.44746
10.1342  -2.36119
10.1535  -2.98371
10.1729  -6.0148
10.1922  -7.34119
10.2116  -8.73582
10.2309  -9.55945
10.2503  -9.95503
10.2697  -9.13674
10.289  -7.68032
10.3084  -5.89827
10.3277  -4.84428
10.3471  -3.63893
10.3664  -1.66352
10.3858  3.976
10.4052  10.3593
10.4245  19.4921
10.4439  27.2992
10.4632  35.2681
10.4826  41.0916
10.502  48.7202
10.5213  58.6303
10.5407  75.6299
10.56  91.3903
10.5794  105.085
10.5987  115.238
10.6181  123.891
10.6375  130.412
10.6568  137.88
10.6762  146.815
10.6955  156.685
10.7149  164.797
10.7342  176.722
10.7536  185.957
10.773  196.555
10.7923  206.726
10.8117  221.77
10.831  239.47
10.8504  253.348
10.8698  264.039
10.8891  274.563
10.9085  282.882
10.9278  285.488
10.9472  281.023
10.9665  270.474
10.9859  255.746
11.0053  234.428
11.0246  210.271
11.044  183.651
11.0633  159.135
11.0827  134.326
11.102  113.417
11.1214  97.1298
11.1408  83.6497
11.1601  72.1274
11.1795  65.3013
11.1988  61.7648
11.2182  64.9859
11.2376  71.5009
11.2569  81.134
11.2763  93.4246
11.2956  106.014
11.315  121.605
11.3343  140.505
11.3537  161.978
11.3731  187.552
11.3924  217.261
11.4118  252.1
11.4311  288.835
11.4505  329.446
11.4698  369.337
11.4892  408.296
11.5086  440.85
11.5279  464.287
11.5473  477.934
11.5666  480.761
11.586  475.552
11.6054  461.632
11.6247  443.387
11.6441  414.777
11.6634  384.739
11.6828  350.47
11.7021  314.737
11.7215  278.504
11.7409  242.762
11.7602  208.145
11.7796  175.21
11.7989  149.638
11.8183  125.645
11.8376  106.056
11.857  88.3558
11.8764  75.8458
11.8957  63.5937
11.9151  52.6178
11.9344  44.9631
11.9538  40.0088
11.9731  35.7548
11.9925  31.9343
12.0119  28.8013
12.0312  27.03
12.0506  23.7406
12.0699  20.4511
12.0893  18.8261
12.1087  18.2022
12.128  16.4029
12.1474  15.0876
12.1667  16.1533
12.1861  17.8209
12.2054  18.5684
12.2248  19.0755
12.2442  21.5271
12.2635  25.3775
12.2829  29.2381
12.3022  33.9323
12.3216  40.6382
12.3409  45.5856
12.3603  50.5606
12.3797  58.5539
12.399  67.9802
12.4184  75.2317
12.4377  83.6943
12.4571  92.6575
12.4765  100.999
12.4958  109.45
12.5152  119.649
12.5345  127.131
12.5539  133.3
12.5732  133.707
12.5926  131.526
12.612  127.925
12.6313  123.519
12.6507  118.52
12.67  108.199
12.6894  96.2401
12.7087  84.4773
12.7281  73.9133
12.7475  62.7144
12.7668  52.2142
12.7862  43.0306
12.8055  35.8195
12.8249  29.6999
12.8443  25.379
12.8636  22.4754
12.883  19.7616
12.9023  18.5979
12.9217  18.6677
12.941  19.4869
12.9604  20.6102
12.9798  24.8402
12.9991  32.7223
13.0185  43.3443
13.0378  58.1217
13.0572  73.617
13.0765  94.3902
13.0959  121.739
13.1153  153.624
13.1346  186.957
13.154  224.1
13.1733  261.409
13.1927  297.13
13.2121  328.924
13.2314  356.15
13.2508  379.503
13.2701  396.374
13.2895  409.469
13.3088  417.558
13.3282  420.166
13.3476  418.994
13.3669  411.052
13.3863  400.099
13.4056  385.473
13.425  369.252
13.4443  349.385
13.4637  323.942
13.4831  298.637
13.5024  272.572
13.5218  249.042
13.5411  224.475
13.5605  201.306
13.5798  181.076
13.5992  158.743
13.6186  139.946
13.6379  121.621
13.6573  109.115
13.6766  96.8429
13.696  87.3399
13.7154  79.3347
13.7347  73.9837
13.7541  71.5825
13.7734  67.3482
13.7928  67.1499
13.8121  68.2203
13.8315  73.0098
13.8509  79.8921
13.8702  90.3166
13.8896  105.123
13.9089  123.017
13.9283  145.182
13.9476  171.66
13.967  202.103
13.9864  236.467
14.0057  262.856
14.0251  294.551
14.0444  313.963
14.0638  331.447
14.0832  334.831
14.1025  321.641
14.1219  308.376
14.1412  319.699
14.1606  318.2
14.1799  342.066
14.1993  391.438
14.2187  515.525
14.238  777.835
14.2574  1183.37
14.2767  1350.1
14.2961  1326.96
14.3154  1110.74
14.3348  728.043
14.3542  449.641
14.3735  218.978
14.3929  87.4715
14.4122  22.9144
14.4316  67.3587
14.451  78.7904
14.4703  65.9405
14.4897  58.5241
14.509  44.9723
14.5284  33.5026
14.5477  22.286
14.5671  14.8446
14.5865  8.57336
14.6058  2.6554
14.6252  -1.93015
14.6445  -4.52416
14.6639  -4.54049
14.6832  -5.36369
14.7026  -5.83873
14.722  -5.38554
14.7413  -2.35371
14.7607  -0.103554
14.78  2.19431
14.7994  6.10952
14.8188  7.66461
14.8381  6.27223
14.8575  0.287466
14.8768  -3.95416
14.8962  -3.31704
14.9155  2.11298
14.9349  8.66023
14.9543  11.7355
14.9736  12.2473
14.993  11.1381
15.0123  11.1483
15.0317  10.0691
15.051  10.7489
15.0704  10.224
15.0898  13.0825
15.1091  15.9503
15.1285  16.9723
15.1478  16.8458
15.1672  14.3472
15.1866  16.6875
15.2059  20.7918
15.2253  25.3617
15.2446  28.051
15.264  30.9974
15.2833  36.3348
15.3027  40.9582
15.3221  43.1198
15.3414  44.4478
15.3608  45.7024
15.3801  46.8744
15.3995  44.3666
15.4188  42.3809
15.4382  41.4584
15.4576  38.0683
15.4769  31.2754
15.4963  26.2017
15.5156  22.1114
15.535  17.9956
15.5543  13.0774
15.5737  9.12817
15.5931  4.76857
15.6124  1.63539
15.6318  -0.220506
15.6511  -1.88612
15.6705  -1.97696
15.6899  -2.89801
15.7092  -3.95532
15.7286  -4.29541
15.7479  -5.43633
15.7673  -7.42682
15.7866  -7.90585
15.806  -9.83117
15.8254  -11.396
15.8447  -10.9987
15.8641  -8.90307
15.8834  -6.5741
15.9028  -6.36024
15.9221  -5.69308
15.9415  -4.54077
15.9609  -3.29177
15.9802  -1.79101
15.9996  0.75021
16.0189  5.11604
16.0383  7.81653
16.0577  11.56
16.077  15.5985
16.0964  20.602
16.1157  25.6408
16.1351  30.6207
16.1544  36.2111
16.1738  40.5838
16.1932  47.0877
16.2125  50.8881
16.2319  54.8124
16.2512  60.9693
16.2706  71.4102
16.2899  76.3804
16.3093  84.3623
16.3287  87.6821
16.348  110.04
16.3674  152.977
16.3867  205.675
16.4061  261.017
16.4255  322.2
16.4448  394.244
16.4642  460.049
16.4835  503.943
16.5029  529.673
16.5222  525.107
16.5416  472.098
16.561  385.017
16.5803  283.065
16.5997  209.81
16.619  153.894
16.6384  122.432
16.6577  89.9069
16.6771  57.7458
16.6965  45.8437
16.7158  46.1736
16.7352  45.7889
16.7545  43.1152
16.7739  40.1979
16.7933  38.8077
16.8126  39.4416
16.832  42.2828
16.8513  47.9257
16.8707  53.2627
16.89  61.5087
16.9094  69.5888
16.9288  80.2917
16.9481  94.2179
16.9675  109.535
16.9868  125.365
17.0062  142.643
17.0255  158.866
17.0449  172.574
17.0643  183.395
17.0836  190.983
17.103  196.386
17.1223  199.94
17.1417  199.192
17.1611  196.836
17.1804  192.337
17.1998  185.831
17.2191  177.1
17.2385  170.393
17.2578  163.16
17.2772  155.741
17.2966  147.753
17.3159  138.637
17.3353  128.447
17.3546  119.495
17.374  109.947
17.3933  97.965
17.4127  86.2578
17.4321  71.9799
17.4514  52.8376
17.4708  36.3628
17.4901  29.8589
17.5095  29.1388
17.5288  26.05
17.5482  19.3568
17.5676  10.988
17.5869  5.5326
17.6063  0.812493
17.6256  -1.51985
17.645  -4.22567
17.6644  -7.31186
17.6837  -10.9583
17.7031  -10.2873
17.7224  -9.02684
17.7418  -3.51652
17.7611  2.6947
17.7805  11.9457
17.7999  20.7391
17.8192  30.1534
17.8386  40.3132
17.8579  52.6409
17.8773  64.354
17.8966  76.8758
17.916  89.128
17.9354  98.4174
17.9547  105.598
17.9741  109.586
17.9934  112.572
18.0128  112.945
18.0322  112.499
18.0515  110.145
18.0709  109.324
18.0902  111.268
18.1096  114.389
18.1289  118.438
18.1483  123.839
18.1677  131.169
18.187  138.409
18.2064  146.226
18.2257  154.325
18.2451  162.336
18.2644  169.806
18.2838  177.323
18.3032  184.197
18.3225  188.607
18.3419  190.849
18.3612  192.53
18.3806  193.195
18.4  191.718
18.4193  190.247
18.4387  191.361
18.458  190.239
18.4774  188.683
18.4967  188.221
18.5161  188.214
18.5355  188.972
18.5548  190.887
18.5742  194.787
18.5935  200.866
18.6129  208.215
18.6322  214.415
18.6516  219.648
18.671  227.382
18.6903  238.068
18.7097  248.944
18.729  258.416
18.7484  268.556
18.7678  279.191
18.7871  287.927
18.8065  293.325
18.8258  297.159
18.8452  296.118
18.8645  293.952
18.8839  290.463
18.9033  284.484
18.9226  275.424
18.942  264.409
18.9613  250.04
18.9807  235.836
19  220.15
19.0194  204.243
19.0388  188.044
19.0581  171.803
19.0775  156.8
19.0968  140.797
19.1162  128.187
19.1356  114.866
19.1549  102.008
19.1743  87.739
19.1936  78.4953
19.213  69.5059
19.2323  61.0454
19.2517  53.8481
19.2711  48.4689
19.2904  45.1673
19.3098  41.1252
19.3291  38.8362
19.3485  36.6959
19.3678  34.8402
19.3872  33.0042
19.4066  33.4127
19.4259  32.1767
19.4453  33.0693
19.4646  35.2995
19.484  37.6113
19.5033  37.2946
19.5227  35.8169
19.5421  33.7848
19.5614  32.5471
19.5808  29.6777
19.6001  27.7494
19.6195  26.9687
19.6389  24.0589
19.6582  21.0875
19.6776  18.5579
19.6969  16.9609
19.7163  14.8221
19.7356  14.0786
19.755  13.9571
19.7744  12.9033
19.7937  11.4747
19.8131  10.1624
19.8324  9.00052
19.8518  9.91725
19.8711  8.99199
19.8905  7.26816
19.9099  5.19364
19.9292  3.32143
19.9486  2.47912
19.9679  0.708041
19.9873  0.732804
20.0067  -0.986006
20.026  -2.57506
20.0454  -6.4231
20.0647  -6.1658
20.0841  -6.7656
20.1034  -6.45312
20.1228  -7.7765
20.1422  -9.00223
20.1615  -8.75976
20.1809  -8.33344
20.2002  -7.29828
20.2196  -7.09297
20.2389  -6.43833
20.2583  -7.5983
20.2777  -7.43905
20.297  -5.22043
20.3164  -2.16419
20.3357  -1.25343
20.3551  0.533166
20.3745  2.2951
20.3938  3.51865
20.4132  5.79755
20.4325  9.11864
20.4519  11.5345
20.4712  13.3364
20.4906  15.0509
20.51  17.0352
20.5293  19.2273
20.5487  23.4356
20.568  27.1189
20.5874  28.042
20.6067  29.1143
20.6261  31.592
20.6455  35.2223
20.6648  38.8496
20.6842  41.4619
20.7035  42.4096
20.7229  42.9322
20.7423  44.7393
20.7616  48.0477
20.781  52.4666
20.8003  55.2141
20.8197  57.4106
20.839  57.9971
20.8584  58.1109
20.8778  57.354
20.8971  58.2567
20.9165  59.6927
20.9358  60.7435
20.9552  61.1715
20.9745  62.182
20.9939  61.0489
21.0133  60.2773
21.0326  59.2763
21.052  58.6492
21.0713  57.0459
21.0907  54.9078
21.1101  50.7303
21.1294  48.2911
21.1488  46.4498
21.1681  44.0468
21.1875  41.1076
21.2068  36.4742
21.2262  32.23
21.2456  30.498
21.2649  28.4973
21.2843  25.8419
21.3036  23.3108
21.323  21.5342
21.3423  19.2325
21.3617  18.789
21.3811  19.6882
21.4004  19.3048
21.4198  19.4465
21.4391  19.1776
21.4585  19.1154
21.4778  17.6541
21.4972  16.3068
21.5166  14.7466
21.5359  13.7732
21.5553  12.7247
21.5746  11.1811
21.594  8.88899
21.6134  5.4812
21.6327  1.49753
21.6521  -1.68894
21.6714  1.02484
21.6908  3.08102
21.7101  4.58409
21.7295  5.30087
21.7489  4.05947
21.7682  5.00461
21.7876  5.32326
21.8069  4.7102
21.8263  3.67733
21.8456  5.74655
21.865  9.93513
21.8844  14.1783
21.9037  17.268
21.9231  20.9183
21.9424  23.8167
21.9618  26.7913
21.9812  29.5586
22.0005  33.203
22.0199  38.684
22.0392  44.0473
22.0586  48.9706
22.0779  53.7588
22.0973  56.2185
22.1167  61.7274
22.136  67.6711
22.1554  73.0856
22.1747  75.159
22.1941  76.3847
22.2134  78.6537
22.2328  80.1024
22.2522  78.6393
22.2715  77.2034
22.2909  76.9468
22.3102  76.2186
22.3296  72.7474
22.349  69.898
22.3683  67.7098
22.3877  63.4273
22.407  60.1364
22.4264  57.9551
22.4457  54.4466
22.4651  50.9339
22.4845  48.6031
22.5038  45.9091
22.5232  42.4341
22.5425  39.4426
22.5619  39.4344
22.5812  39.8578
22.6006  37.7793
22.62  36.5018
22.6393  36.4324
22.6587  36.3758
22.678  36.0064
22.6974  36.9289
22.7168  37.3965
22.7361  39.9196
22.7555  44.1217
22.7748  47.8479
22.7942  50.0322
22.8135  53.5542
22.8329  58.1016
22.8523  63.3065
22.8716  66.7233
22.891  67.9943
22.9103  70.7173
22.9297  74.9034
22.949  81.4119
22.9684  86.8256
22.9878  90.1941
23.0071  89.4424
23.0265  91.9516
23.0458  96.9903
23.0652  104.029
23.0845  107.077
23.1039  108.991
23.1233  110.908
23.1426  112.168
23.162  112.977
23.1813  114.775
23.2007  119.507
23.2201  124.649
23.2394  132.932
23.2588  141.136
23.2781  153.09
23.2975  168.389
23.3168  186.017
23.3362  194.533
23.3556  191.747
23.3749  209.28
23.3943  235.93
23.4136  245.979
23.433  243.115
23.4523  232.06
23.4717  225.858
23.4911  209.712
23.5104  180.086
23.5298  139.991
23.5491  106.965
23.5685  77.3477
23.5879  64.222
23.6072  55.3274
23.6266  52.3268
23.6459  47.3048
23.6653  40.3258
23.6846  32.4366
23.704  24.5875
23.7234  19.4819
23.7427  15.3545
23.7621  13.4825
23.7814  9.14151
23.8008  6.36395
23.8201  4.84819
23.8395  4.14441
23.8589  0.262843
23.8782  -1.06916
23.8976  0.812354
23.9169  2.3107
23.9363  2.57219
23.9557  1.6168
23.975  0.994846
23.9944  -0.616753
24.0137  0.0312818
24.0331  1.82751
24.0524  1.92914
24.0718  1.51428
24.0912  1.91639
24.1105  3.52816
24.1299  4.39031
24.1492  3.87672
24.1686  4.69925
24.1879  5.51956
24.2073  5.56413
24.2267  4.21776
24.246  4.21763
24.2654  5.43283
24.2847  4.56241
24.3041  3.51714
24.3235  3.09804
24.3428  4.7419
24.3622  3.77453
24.3815  2.21391
24.4009  -0.485613
24.4202  -1.96441
24.4396  -2.27565
24.459  -1.82743
24.4783  -1.15137
24.4977  -2.35673
24.517  -3.74365
24.5364  -4.5017
24.5557  -2.92515
24.5751  -2.75219
24.5945  -1.44461
24.6138  -0.795301
24.6332  0.554909
24.6525  0.854812
24.6719  1.27454
24.6913  1.27275
24.7106  0.0788138
24.73  1.35366
24.7493  4.01282
24.7687  7.08967
24.788  7.8121
24.8074  7.56102
24.8268  5.54073
24.8461  5.65961
24.8655  5.52098
24.8848  6.07017
24.9042  5.51853
24.9235  6.31198
24.9429  8.26134
24.9623  9.04798
24.9816  9.32734
25.001  6.38929
25.0203  8.26611
25.0397  9.19213
25.059  11.2242
25.0784  10.9913
25.0978  8.25406
25.1171  7.3194
25.1365  6.20002
25.1558  7.44083
25.1752  5.58672
25.1946  6.23212
25.2139  5.12696
25.2333  3.85905
25.2526  2.92492
25.272  3.95338
25.2913  4.85405
25.3107  3.43766
25.3301  1.5616
25.3494  0.664089
25.3688  1.57132
25.3881  2.62683
25.4075  3.67958
25.4268  5.66915
25.4462  3.80419
25.4656  2.96965
25.4849  1.33328
25.5043  3.18761
25.5236  1.90579
25.543  -1.16655
25.5624  -3.58536
25.5817  -3.11037
25.6011  1.37373
25.6204  3.92278
25.6398  3.74765
25.6591  1.06616
25.6785  0.615201
25.6979  0.349759
25.7172  -2.79978
25.7366  -2.29384
25.7559  1.34691
25.7753  3.33577
25.7946  3.78402
25.814  4.34015
25.8334  6.05476
25.8527  7.637
25.8721  8.25578
25.8914  9.0637
25.9108  6.18122
25.9302  7.06257
25.9495  9.50385
25.9689  13.7961
25.9882  17.1078
26.0076  20.6781
26.0269  19.8421
26.0463  20.9873
26.0657  22.3095
26.085  29.508
26.1044  31.8551
26.1237  33.1959
26.1431  32.9313
26.1624  38.3079
26.1818  45.6405
26.2012  50.1274
26.2205  52.7253
26.2399  50.6284
26.2592  48.5246
26.2786  46.6609
26.298  48.216
26.3173  44.8801
26.3367  40.9021
26.356  36.6764
26.3754  35.9153
26.3947  34.3927
26.4141  32.7847
26.4335  31.8181
26.4528  31.4898
26.4722  32.9892
26.4915  37.4808
26.5109  43.5365
26.5302  47.4654
26.5496  49.3766
26.569  51.2841
26.5883  55.202
26.6077  59.8251
26.627  65.5124
26.6464  65.5892
26.6658  62.4068
26.6851  64.5276
26.7045  67.3944
26.7238  67.5218
26.7432  70.4482
26.7625  75.0173
26.7819  75.9628
26.8013  76.3118
26.8206  78.5013
26.84  79.2555
26.8593  81.0968
26.8787  83.344
26.898  89.3307
26.9174  93.0332
26.9368  97.2486
26.9561  95.0673
26.9755  96.6664
26.9948  97.7528
27.0142  101.762
27.0335  99.6906
27.0529  100.099
27.0723  97.5717
27.0916  96.0336
27.111  90.1169
27.1303  86.8849
27.1497  85.0285
27.1691  83.9626
27.1884  81.2157
27.2078  80.7751
27.2271  81.3142
27.2465  82.6099
27.2658  85.7665
27.2852  85.8822
27.3046  89.2805
27.3239  97.2075
27.3433  109.193
27.3626  121.107
27.382  136.604
27.4013  165.627
27.4207  199.422
27.4401  228.63
27.4594  225.847
27.4788  208.765
27.4981  208.752
27.5175  232.391
27.5369  254.715
27.5562  262.492
27.5756  269.406
27.5949  257.088
27.6143  233.347
27.6336  199.792
27.653  171.344
27.6724  143.684
27.6917  129.865
27.7111  120.751
27.7304  121.814
27.7498  117.735
27.7691  109.211
27.7885  91.9724
27.8079  72.7557
27.8272  58.3223
27.8466  53.0695
27.8659  49.3189
27.8853  42.5708
27.9047  40.5299
27.924  37.3057
27.9434  32.8378
27.9627  27.6382
27.9821  25.6462
28.0014  26.1295
28.0208  25.7829
28.0402  25.9187
28.0595  27.2151
28.0789  25.8401
28.0982  24.4861
28.1176  21.9074
28.1369  20.7661
28.1563  22.0912
28.1757  23.9273
28.195  29.7886
28.2144  26.2346
28.2337  26.4566
28.2531  28.6543
28.2725  32.7329
28.2918  35.3466
28.3112  38.0698
28.3305  36.9819
28.3499  32.7781
28.3692  29.2378
28.3886  27.0048
28.408  27.7493
28.4273  25.9327
28.4467  21.449
28.466  20.1836
28.4854  23.1617
28.5047  25.9872
28.5241  27.7641
28.5435  32.473
28.5628  31.6764
28.5822  27.9269
28.6015  27.8126
28.6209  35.0249
28.6403  45.1023
28.6596  52.2483
28.679  56.3122
28.6983  67.6982
28.7177  84.4793
28.737  101.282
28.7564  116.021
28.7758  133.192
28.7951  138.906
28.8145  142.62
28.8338  139.972
28.8532  134.585
28.8725  116.572
28.8919  104.239
28.9113  86.1406
28.9306  69.3499
28.95  58.2303
28.9693  49.3749
28.9887  37.8506
29.008  30.7264
29.0274  32.9855
29.0468  34.8896
29.0661  29.3727
29.0855  23.2608
29.1048  19.2952
29.1242  23.104
29.1436  21.5384
29.1629  23.7554
29.1823  21.8327
29.2016  16.864
29.221  15.0737
29.2403  12.3265
29.2597  9.13479
29.2791  7.42411
29.2984  11.7929
29.3178  10.8569
29.3371  8.64318
29.3565  5.40827
29.3758  0.760452
29.3952  0.635407
29.4146  6.61369
29.4339  12.0061
29.4533  10.3481
29.4726  5.477
29.492  3.36288
29.5114  9.34339
29.5307  17.8534
29.5501  18.5724
29.5694  7.52982
29.5888  0.733334
29.6081  4.02546
29.6275  1.37211
29.6469  -1.07952
29.6662  -0.487072
29.6856  0.690516
29.7049  -3.4267
29.7243  -2.29338
29.7436  0.89858
29.763  3.64391
29.7824  -1.62372