File: Courses/Advance project (MSE)/Mo2Ti2C3/XRD/data/P7  0001.dat
4.24937  7.78799
4.26873  4.09026
4.28809  3.63502
4.30744  1.78453
4.3268  4.99723
4.34616  5.66875
4.36552  6.97477
4.38488  4.63409
4.40423  4.05688
4.42359  3.73263
4.44295  3.46235
4.46231  2.61885
4.48166  2.21323
4.50102  2.88591
4.52038  2.34749
4.53974  2.31579
4.5591  1.12208
4.57845  0.13557
4.59781  -0.619579
4.61717  0.249894
4.63653  -0.458977
4.65589  1.93626
4.67524  4.62605
4.6946  7.06173
4.71396  6.98635
4.73332  6.53356
4.75267  6.41883
4.77203  5.91497
4.79139  5.33751
4.81075  2.60066
4.83011  3.17327
4.84946  3.508
4.86882  4.59652
4.88818  8.29083
4.90754  8.62791
4.92689  8.48886
4.94625  6.5515
4.96561  5.74945
4.98497  3.83637
5.00433  2.57905
5.02368  2.66612
5.04304  0.255841
5.0624  1.59347
5.08176  0.118852
5.10112  -0.260598
5.12047  -0.13029
5.13983  0.972499
5.15919  4.18036
5.17855  6.53678
5.1979  9.24597
5.21726  6.33662
5.23662  2.71605
5.25598  0.180619
5.27534  -0.794889
5.29469  -3.05812
5.31405  -3.08771
5.33341  -0.440936
5.35277  3.26046
5.37213  2.6465
5.39148  1.07317
5.41084  1.36367
5.4302  2.82144
5.44956  3.12458
5.46891  2.87255
5.48827  4.4694
5.50763  2.87437
5.52699  3.44999
5.54635  2.12879
5.5657  4.23377
5.58506  4.6066
5.60442  5.66058
5.62378  7.4683
5.64313  6.24361
5.66249  3.54937
5.68185  1.21137
5.70121  0.132304
5.72057  2.39072
5.73992  4.14584
5.75928  5.98578
5.77864  3.71616
5.798  1.27206
5.81736  -0.449223
5.83671  0.205146
5.85607  0.248277
5.87543  1.81387
5.89479  3.07956
5.91414  3.31851
5.9335  2.63912
5.95286  0.25778
5.97222  -0.294835
5.99158  1.65389
6.01093  3.77617
6.03029  7.19424
6.04965  5.9816
6.06901  4.5453
6.08837  2.02609
6.10772  1.80058
6.12708  3.22344
6.14644  4.43008
6.1658  5.33986
6.18515  6.34375
6.20451  5.07413
6.22387  5.30396
6.24323  5.44181
6.26259  5.77291
6.28194  4.90829
6.3013  5.34973
6.32066  6.02564
6.34002  7.65974
6.35938  7.48367
6.37873  8.09295
6.39809  6.5698
6.41745  5.51709
6.43681  4.63499
6.45616  2.39725
6.47552  1.08615
6.49488  -0.827177
6.51424  1.10984
6.5336  2.61092
6.55295  2.93641
6.57231  0.622525
6.59167  -0.554292
6.61103  0.024471
6.63038  -0.359065
6.64974  0.0174576
6.6691  1.38818
6.68846  2.12843
6.70782  0.358736
6.72717  -0.222135
6.74653  -0.776409
6.76589  -2.0536
6.78525  -0.818229
6.80461  0.303227
6.82396  0.617529
6.84332  0.650311
6.86268  -0.00357936
6.88204  0.148287
6.90139  0.913152
6.92075  0.700664
6.94011  1.81706
6.95947  1.43171
6.97883  1.76314
6.99818  1.3039
7.01754  1.53561
7.0369  0.183843
7.05626  0.452504
7.07562  0.397829
7.09497  0.243567
7.11433  -1.68959
7.13369  -0.00158425
7.15305  1.80358
7.1724  0.776579
7.19176  0.492506
7.21112  0.600396
7.23048  1.33447
7.24984  1.32613
7.26919  1.03415
7.28855  1.60181
7.30791  1.92141
7.32727  1.24091
7.34663  0.493026
7.36598  -1.19983
7.38534  -1.35544
7.4047  -0.0714498
7.42406  0.90629
7.44341  1.68004
7.46277  0.0280701
7.48213  0.825084
7.50149  -0.257589
7.52085  0.594452
7.5402  0.570133
7.55956  1.11133
7.57892  0.706103
7.59828  -0.756836
7.61763  -1.18754
7.63699  -1.601
7.65635  -0.659364
7.67571  0.798301
7.69507  -0.753291
7.71442  -0.553452
7.73378  -0.618999
7.75314  1.42739
7.7725  1.58811
7.79186  0.788785
7.81121  -0.520239
7.83057  0.124438
7.84993  1.60209
7.86929  0.524002
7.88864  1.4486
7.908  1.97493
7.92736  2.48507
7.94672  3.85923
7.96608  4.07439
7.98543  5.16692
8.00479  4.81317
8.02415  6.70903
8.04351  9.6142
8.06287  13.9092
8.08222  16.5414
8.10158  18.1541
8.12094  19.1134
8.1403  22.4648
8.15965  23.1443
8.17901  21.9551
8.19837  18.9337
8.21773  18.9893
8.23709  20.6413
8.25644  22.6674
8.2758  26.1207
8.29516  29.8624
8.31452  34.8101
8.33387  38.6465
8.35323  43.0827
8.37259  45.8387
8.39195  49.6414
8.41131  49.5247
8.43066  49.62
8.45002  47.5009
8.46938  45.599
8.48874  44.3575
8.5081  40.6024
8.52745  36.6096
8.54681  31.9268
8.56617  28.5053
8.58553  24.1927
8.60488  21.2709
8.62424  16.6365
8.6436  12.4949
8.66296  8.26412
8.68232  6.94549
8.70167  6.06976
8.72103  4.81894
8.74039  2.11613
8.75975  -0.208195
8.77911  -0.531424
8.79846  0.186943
8.81782  -0.0688199
8.83718  1.6291
8.85654  4.32444
8.87589  8.95175
8.89525  12.8892
8.91461  20.1234
8.93397  31.4211
8.95333  44.2235
8.97268  59.2921
8.99204  72.0284
9.0114  81.0972
9.03076  84.0875
9.05012  76.715
9.06947  59.4556
9.08883  36.7354
9.10819  22.6542
9.12755  19.415
9.1469  20.4525
9.16626  16.9717
9.18562  10.4282
9.20498  7.99557
9.22434  6.83056
9.24369  6.10148
9.26305  4.55975
9.28241  1.55606
9.30177  -1.11836
9.32112  -1.76588
9.34048  -1.2857
9.35984  -0.400353
9.3792  -2.01559
9.39856  -3.43109
9.41791  -6.62999
9.43727  -4.55187
9.45663  -4.9477
9.47599  -3.33225
9.49535  -3.12057
9.5147  -2.83674
9.53406  -2.90073
9.55342  -3.49757
9.57278  -0.894441
9.59213  2.04656
9.61149  4.28154
9.63085  7.54403
9.65021  8.52903
9.66957  11.1804
9.68892  15.5624
9.70828  21.9113
9.72764  30.6285
9.747  38.6549
9.76636  48.5827
9.78571  57.5628
9.80507  69.5745
9.82443  79.5814
9.84379  91.2076
9.86314  100.27
9.8825  110.28
9.90186  117.139
9.92122  121.179
9.94058  122.944
9.95993  119.635
9.97929  114.507
9.99865  105.223
10.018  97.1582
10.0374  85.7398
10.0567  74.2282
10.0761  63.4912
10.0954  51.8624
10.1148  43.26
10.1342  33.6393
10.1535  26.5914
10.1729  19.0087
10.1922  13.0998
10.2116  7.72381
10.2309  4.68324
10.2503  1.20653
10.2697  -0.620698
10.289  -1.84861
10.3084  -1.21633
10.3277  -2.43473
10.3471  -2.66828
10.3664  -2.51776
10.3858  -0.395001
10.4052  4.41315
10.4245  9.94724
10.4439  16.2365
10.4632  18.9661
10.4826  20.0723
10.502  22.4263
10.5213  28.3734
10.5407  40.908
10.56  52.6828
10.5794  61.9229
10.5987  66.6649
10.6181  71.1885
10.6375  76.1493
10.6568  83.3191
10.6762  90.5015
10.6955  98.6987
10.7149  105.798
10.7342  112.219
10.7536  119.124
10.773  128.318
10.7923  141.019
10.8117  152.739
10.831  165.795
10.8504  177.557
10.8698  190.402
10.8891  203.615
10.9085  216.295
10.9278  226.724
10.9472  235.045
10.9665  238.38
10.9859  237.278
11.0053  230.401
11.0246  221.869
11.044  207.393
11.0633  190.875
11.0827  171.468
11.102  152.784
11.1214  134.443
11.1408  116.734
11.1601  99.5128
11.1795  84.5071
11.1988  73.4741
11.2182  65.6119
11.2376  61.6396
11.2569  60.238
11.2763  60.0336
11.2956  62.4932
11.315  65.7368
11.3343  73.1231
11.3537  78.7752
11.3731  86.7907
11.3924  93.8719
11.4118  106.666
11.4311  121.089
11.4505  136.863
11.4698  150.75
11.4892  164.729
11.5086  180.131
11.5279  196.575
11.5473  212.779
11.5666  226.63
11.586  236.999
11.6054  245.563
11.6247  248.502
11.6441  246.876
11.6634  237.449
11.6828  226.59
11.7021  210.612
11.7215  195.148
11.7409  176.616
11.7602  156.728
11.7796  136.859
11.7989  120.145
11.8183  102.552
11.8376  87.3216
11.857  72.9524
11.8764  61.6605
11.8957  52.4115
11.9151  43.3808
11.9344  37.0028
11.9538  32.3133
11.9731  30.0954
11.9925  28.561
12.0119  26.9861
12.0312  24.9787
12.0506  24.1771
12.0699  21.9437
12.0893  20.9649
12.1087  20.7618
12.128  19.6103
12.1474  18.014
12.1667  16.7679
12.1861  15.1555
12.2054  13.7143
12.2248  11.787
12.2442  9.81822
12.2635  7.56123
12.2829  6.71889
12.3022  4.91023
12.3216  3.91743
12.3409  -0.213603
12.3603  -1.86508
12.3797  -1.40084
12.399  1.57319
12.4184  3.8757
12.4377  6.07693
12.4571  7.48013
12.4765  10.1257
12.4958  12.8831
12.5152  15.333
12.5345  18.8243
12.5539  21.7234
12.5732  25.7778
12.5926  29.2745
12.612  32.5847
12.6313  36.9162
12.6507  40.1106
12.67  42.6843
12.6894  42.849
12.7087  44.6678
12.7281  46.0265
12.7475  47.2547
12.7668  47.6677
12.7862  46.6473
12.8055  44.9075
12.8249  44.0526
12.8443  43.9561
12.8636  42.8329
12.883  38.657
12.9023  36.3837
12.9217  34.696
12.941  32.7703
12.9604  31.322
12.9798  30.2743
12.9991  29.6641
13.0185  28.813
13.0378  29.9302
13.0572  32.6591
13.0765  36.9861
13.0959  43.6747
13.1153  52.0753
13.1346  60.3965
13.154  70.3779
13.1733  80.6211
13.1927  90.6559
13.2121  101.999
13.2314  115.022
13.2508  133
13.2701  150.906
13.2895  170.883
13.3088  191.716
13.3282  212.385
13.3476  235.408
13.3669  256.168
13.3863  278.665
13.4056  299.082
13.425  315.974
13.4443  327.585
13.4637  332.997
13.4831  336.889
13.5024  334.887
13.5218  327.14
13.5411  314.351
13.5605  299.723
13.5798  284.125
13.5992  263.33
13.6186  242.161
13.6379  220.806
13.6573  200.395
13.6766  177.822
13.696  159.594
13.7154  141.934
13.7347  125.299
13.7541  111.554
13.7734  99.6306
13.7928  88.135
13.8121  80.198
13.8315  75.6225
13.8509  73.7955
13.8702  72.5056
13.8896  71.9737
13.9089  73.9904
13.9283  79.3466
13.9476  87.3245
13.967  95.585
13.9864  106.204
14.0057  121.731
14.0251  139.324
14.0444  160.925
14.0638  185.437
14.0832  211.514
14.1025  236.33
14.1219  260.029
14.1412  278.302
14.1606  288.789
14.1799  294.228
14.1993  292.948
14.2187  287.886
14.238  278.536
14.2574  247.253
14.2767  215.398
14.2961  256.136
14.3154  238.985
14.3348  301.281
14.3542  376.533
14.3735  542.772
14.3929  673.983
14.4122  734.995
14.4316  791.102
14.451  800.406
14.4703  802.331
14.4897  675.203
14.509  566.947
14.5284  428.41
14.5477  262.76
14.5671  168.125
14.5865  52.8087
14.6058  62.685
14.6252  53.0939
14.6445  34.1316
14.6639  28.4276
14.6832  21.6991
14.7026  18.1651
14.722  16.634
14.7413  12.3999
14.7607  13.11
14.78  16.3693
14.7994  20.8337
14.8188  15.4231
14.8381  10.4628
14.8575  2.41156
14.8768  -4.10522
14.8962  -5.37944
14.9155  1.57094
14.9349  9.10075
14.9543  11.5766
14.9736  9.89227
14.993  9.56853
15.0123  8.53832
15.0317  7.29375
15.051  6.78566
15.0704  8.46568
15.0898  10.322
15.1091  8.85745
15.1285  4.01773
15.1478  0.670392
15.1672  -1.75136
15.1866  -2.08404
15.2059  -1.43365
15.2253  -0.678367
15.2446  -0.357927
15.264  -1.02886
15.2833  -1.53669
15.3027  -0.790847
15.3221  0.0651704
15.3414  1.09229
15.3608  1.62373
15.3801  3.18857
15.3995  3.26816
15.4188  5.90053
15.4382  7.93925
15.4576  9.69574
15.4769  10.0084
15.4963  11.6441
15.5156  13.554
15.535  15.1263
15.5543  12.9944
15.5737  11.3752
15.5931  11.0001
15.6124  13.7028
15.6318  14.9831
15.6511  13.919
15.6705  12.8064
15.6899  10.6938
15.7092  8.71618
15.7286  5.30778
15.7479  5.70467
15.7673  3.84956
15.7866  3.16355
15.806  -0.566923
15.8254  -0.909336
15.8447  -1.1752
15.8641  -1.98478
15.8834  -2.74069
15.9028  -3.52714
15.9221  -4.79223
15.9415  -4.59996
15.9609  -4.66586
15.9802  -4.8033
15.9996  -5.25964
16.0189  -2.44601
16.0383  0.0456056
16.0577  1.42969
16.077  1.93737
16.0964  4.42016
16.1157  9.4745
16.1351  12.6287
16.1544  16.5138
16.1738  20.127
16.1932  25.3658
16.2125  28.1359
16.2319  32.3524
16.2512  35.8566
16.2706  39.1239
16.2899  42.5699
16.3093  46.2366
16.3287  50.8264
16.348  55.7007
16.3674  61.8668
16.3867  67.6258
16.4061  73.4445
16.4255  83.3023
16.4448  94.3236
16.4642  106.879
16.4835  117.22
16.5029  121.4
16.5222  135.081
16.5416  171.95
16.561  187.863
16.5803  233.425
16.5997  292.431
16.619  378.219
16.6384  440.665
16.6577  533.564
16.6771  602.665
16.6965  641.078
16.7158  634.527
16.7352  578.629
16.7545  464.508
16.7739  359.111
16.7933  311.527
16.8126  360.716
16.832  419.257
16.8513  291.508
16.8707  237.025
16.89  189.056
16.9094  151.786
16.9288  126.332
16.9481  111.611
16.9675  101.684
16.9868  93.4959
17.0062  86.3143
17.0255  79.1975
17.0449  74.6148
17.0643  71.0468
17.0836  66.7791
17.103  65.3512
17.1223  64.5959
17.1417  64.259
17.1611  62.8926
17.1804  61.9573
17.1998  58.3872
17.2191  54.3983
17.2385  49.7448
17.2578  47.0077
17.2772  42.7755
17.2966  40.8423
17.3159  38.905
17.3353  35.804
17.3546  32.3053
17.374  28.215
17.3933  25.6664
17.4127  23.4651
17.4321  19.0197
17.4514  10.6
17.4708  3.99113
17.4901  5.33872
17.5095  12.5477
17.5288  17.1502
17.5482  15.2251
17.5676  10.5323
17.5869  8.92462
17.6063  8.31638
17.6256  7.29649
17.645  5.01471
17.6644  1.30283
17.6837  -3.42225
17.7031  -4.95982
17.7224  -6.25817
17.7418  -5.9571
17.7611  -7.99216
17.7805  -7.11612
17.7999  -6.68097
17.8192  -7.03194
17.8386  -7.43354
17.8579  -7.62009
17.8773  -6.46515
17.8966  -6.04501
17.916  -1.86182
17.9354  3.58413
17.9547  8.82518
17.9741  12.8294
17.9934  18.3432
18.0128  23.8128
18.0322  29.8599
18.0515  33.6973
18.0709  41.0691
18.0902  49.6984
18.1096  59.7789
18.1289  68.1399
18.1483  74.858
18.1677  81.1201
18.187  86.3255
18.2064  92.0652
18.2257  98.1428
18.2451  105.338
18.2644  112.56
18.2838  120.655
18.3032  129.389
18.3225  136.518
18.3419  142.643
18.3612  149.316
18.3806  157.631
18.4  163.921
18.4193  169.801
18.4387  174.964
18.458  178.753
18.4774  183.396
18.4967  188.916
18.5161  195.477
18.5355  201.218
18.5548  205.867
18.5742  210.373
18.5935  215.957
18.6129  221.79
18.6322  226.285
18.6516  229.48
18.671  232.641
18.6903  238.113
18.7097  242.783
18.729  248.31
18.7484  250.951
18.7678  257.057
18.7871  258
18.8065  263.04
18.8258  264.94
18.8452  271.772
18.8645  273.446
18.8839  276.113
18.9033  277.795
18.9226  281.042
18.942  280.855
18.9613  277.561
18.9807  272.422
19  267.783
19.0194  263.106
19.0388  256.221
19.0581  247.157
19.0775  239.222
19.0968  227.754
19.1162  218.02
19.1356  205.563
19.1549  195.066
19.1743  182.388
19.1936  170.484
19.213  158.049
19.2323  146.627
19.2517  136.502
19.2711  126.552
19.2904  117.668
19.3098  106.887
19.3291  95.9216
19.3485  85.3879
19.3678  77.6142
19.3872  68.8247
19.4066  62.0194
19.4259  54.2112
19.4453  47.5114
19.4646  40.5093
19.484  36.2936
19.5033  31.3725
19.5227  26.972
19.5421  22.9747
19.5614  19.2472
19.5808  15.7554
19.6001  12.2337
19.6195  11.2342
19.6389  10.0277
19.6582  7.97984
19.6776  7.2121
19.6969  8.67778
19.7163  7.79973
19.7356  7.92129
19.755  9.00699
19.7744  10.571
19.7937  9.39073
19.8131  8.78136
19.8324  8.85376
19.8518  9.59639
19.8711  8.27222
19.8905  8.08158
19.9099  8.26572
19.9292  9.15949
19.9486  10.374
19.9679  9.12082
19.9873  8.22202
20.0067  6.38919
20.026  5.19731
20.0454  3.45419
20.0647  2.49047
20.0841  1.71868
20.1034  0.783685
20.1228  -0.991064
20.1422  -2.20045
20.1615  -2.3174
20.1809  -3.15995
20.2002  -4.35802
20.2196  -6.58705
20.2389  -7.5617
20.2583  -6.74749
20.2777  -6.54759
20.297  -6.04547
20.3164  -5.68877
20.3357  -6.17017
20.3551  -5.91857
20.3745  -6.24001
20.3938  -3.76807
20.4132  -1.13408
20.4325  0.385435
20.4519  -0.147362
20.4712  -0.509131
20.4906  -0.490153
20.51  2.52582
20.5293  6.72198
20.5487  10.5562
20.568  12.3091
20.5874  11.6276
20.6067  12.2083
20.6261  15.3818
20.6455  19.9609
20.6648  22.5946
20.6842  24.7494
20.7035  26.723
20.7229  27.1362
20.7423  28.0292
20.7616  28.6345
20.781  31.1717
20.8003  32.8481
20.8197  35.5425
20.839  38.0299
20.8584  39.5355
20.8778  38.5203
20.8971  39.9748
20.9165  40.3463
20.9358  41.7977
20.9552  42.6938
20.9745  44.2296
20.9939  43.6272
21.0133  42.3567
21.0326  41.5728
21.052  41.7515
21.0713  41.9704
21.0907  38.6196
21.1101  34.4464
21.1294  33.8198
21.1488  36.6269
21.1681  35.7684
21.1875  33.7667
21.2068  31.9538
21.2262  30.052
21.2456  27.764
21.2649  24.9641
21.2843  23.1829
21.3036  20.7523
21.323  17.769
21.3423  14.0371
21.3617  12.045
21.3811  10.5657
21.4004  8.3478
21.4198  7.52944
21.4391  4.85621
21.4585  2.52345
21.4778  1.50774
21.4972  2.147
21.5166  0.421008
21.5359  -0.360373
21.5553  -0.661925
21.5746  -0.459644
21.594  -0.497323
21.6134  -1.16229
21.6327  -3.30986
21.6521  -3.68106
21.6714  -0.737106
21.6908  1.48393
21.7101  3.43032
21.7295  5.62463
21.7489  6.9737
21.7682  7.85881
21.7876  8.1139
21.8069  8.41063
21.8263  9.57155
21.8456  10.3521
21.865  12.4352
21.8844  13.3425
21.9037  15.431
21.9231  16.2335
21.9424  18.033
21.9618  17.9204
21.9812  18.2359
22.0005  19.7565
22.0199  23.8946
22.0392  27.6432
22.0586  28.7998
22.0779  30.7992
22.0973  33.3385
22.1167  36.7636
22.136  40.6042
22.1554  44.9316
22.1747  49.3518
22.1941  53.033
22.2134  56.7869
22.2328  58.5028
22.2522  59.5605
22.2715  61.1247
22.2909  62.6691
22.3102  64.1048
22.3296  66.6766
22.349  68.8344
22.3683  71.6015
22.3877  71.5055
22.407  71.2696
22.4264  71.3044
22.4457  71.0514
22.4651  69.7046
22.4845  67.7021
22.5038  65.8118
22.5232  63.8109
22.5425  62.2778
22.5619  61.044
22.5812  59.2093
22.6006  55.4713
22.62  51.3735
22.6393  48.1437
22.6587  45.6054
22.678  43.3187
22.6974  41.6351
22.7168  39.2436
22.7361  37.6713
22.7555  36.0963
22.7748  34.4814
22.7942  32.7042
22.8135  33.0599
22.8329  33.0799
22.8523  34.3627
22.8716  33.6592
22.891  33.2089
22.9103  32.9347
22.9297  34.1669
22.949  34.1373
22.9684  35.2763
22.9878  36.7649
23.0071  37.1101
23.0265  37.1915
23.0458  39.4385
23.0652  44.0127
23.0845  48.465
23.1039  51.2756
23.1233  54.127
23.1426  55.9834
23.162  59.078
23.1813  62.245
23.2007  66.5791
23.2201  67.9835
23.2394  70.353
23.2588  70.468
23.2781  70.8776
23.2975  72.1557
23.3168  75.2635
23.3362  78.2562
23.3556  78.2311
23.3749  78.0872
23.3943  78.0634
23.4136  80.9835
23.433  85.2808
23.4523  92.0595
23.4717  100.562
23.4911  112.861
23.5104  122.228
23.5298  134.037
23.5491  152.934
23.5685  180.681
23.5879  206.546
23.6072  213.706
23.6266  204.767
23.6459  220.056
23.6653  257.082
23.6846  282.147
23.704  287.728
23.7234  281.684
23.7427  263.744
23.7621  229.956
23.7814  183.138
23.8008  138.247
23.8201  94.8763
23.8395  80.8039
23.8589  75.5226
23.8782  67.9815
23.8976  52.6198
23.9169  38.6396
23.9363  28.2637
23.9557  19.9774
23.975  13.5236
23.9944  9.78134
24.0137  6.57388
24.0331  4.90524
24.0524  4.5279
24.0718  4.80538
24.0912  4.60234
24.1105  5.06415
24.1299  5.32296
24.1492  3.20247
24.1686  2.79126
24.1879  2.68564
24.2073  3.37838
24.2267  4.02012
24.246  5.2798
24.2654  5.42467
24.2847  3.21807
24.3041  2.34293
24.3235  3.42043
24.3428  4.61514
24.3622  4.31061
24.3815  3.0764
24.4009  3.82093
24.4202  2.32688
24.4396  2.44819
24.459  2.98585
24.4783  1.43714
24.4977  -1.14158
24.517  -2.42219
24.5364  -0.495968
24.5557  -0.380694
24.5751  -0.23985
24.5945  -0.469053
24.6138  0.71997
24.6332  -0.0424108
24.6525  0.88376
24.6719  1.71907
24.6913  1.58556
24.7106  -0.211805
24.73  -1.46367
24.7493  -1.0475
24.7687  1.76797
24.788  4.16406
24.8074  4.7194
24.8268  4.80032
24.8461  4.06452
24.8655  1.67739
24.8848  -1.47953
24.9042  -0.502842
24.9235  1.40427
24.9429  1.74039
24.9623  0.813049
24.9816  1.91915
25.001  0.501213
25.0203  0.713283
25.0397  1.27054
25.059  4.36753
25.0784  4.67592
25.0978  3.58673
25.1171  1.57893
25.1365  -0.363766
25.1558  -0.643077
25.1752  1.2395
25.1946  3.94194
25.2139  2.2451
25.2333  0.956969
25.2526  2.56333
25.272  4.94915
25.2913  4.22431
25.3107  2.48452
25.3301  4.06382
25.3494  3.62021
25.3688  2.3183
25.3881  0.649091
25.4075  2.13143
25.4268  3.97504
25.4462  6.073
25.4656  8.0388
25.4849  9.46466
25.5043  9.92275
25.5236  10.4996
25.543  9.38743
25.5624  7.4727
25.5817  4.46241
25.6011  3.16973
25.6204  1.15358
25.6398  -1.89457
25.6591  -2.95201
25.6785  -0.811278
25.6979  2.19355
25.7172  2.79597
25.7366  3.90546
25.7559  7.82035
25.7753  11.6188
25.7946  14.0574
25.814  12.9183
25.8334  13.4626
25.8527  14.4655
25.8721  16.4735
25.8914  17.7389
25.9108  15.242
25.9302  16.3538
25.9495  18.138
25.9689  21.8798
25.9882  24.7122
26.0076  27.1366
26.0269  27.7017
26.0463  29.5942
26.0657  32.0075
26.085  38.2406
26.1044  39.3861
26.1237  41.9215
26.1431  42.8246
26.1624  51.9596
26.1818  59.4002
26.2012  62.4418
26.2205  61.1333
26.2399  59.5383
26.2592  59.4755
26.2786  60.2329
26.298  58.888
26.3173  55.9571
26.3367  51.9832
26.356  43.6357
26.3754  34.9232
26.3947  31.0248
26.4141  33.1763
26.4335  35.1971
26.4528  35.1556
26.4722  33.263
26.4915  32.952
26.5109  30.5384
26.5302  32.1821
26.5496  33.0957
26.569  35.1348
26.5883  33.8614
26.6077  36.2456
26.627  42.0458
26.6464  44.5697
26.6658  44.8985
26.6851  44.6626
26.7045  48.616
26.7238  53.726
26.7432  55.5494
26.7625  57.4853
26.7819  54.5879
26.8013  55.6863
26.8206  55.4706
26.84  61.4937
26.8593  65.4557
26.8787  68.0897
26.898  74.0938
26.9174  83.1425
26.9368  88.0914
26.9561  85.4033
26.9755  84.1107
26.9948  85.0257
27.0142  90.6615
27.0335  93.896
27.0529  99.37
27.0723  102.931
27.0916  103.995
27.111  103.942
27.1303  103.59
27.1497  104.683
27.1691  108.135
27.1884  109.005
27.2078  105.352
27.2271  105.623
27.2465  107.941
27.2658  110.471
27.2852  108.271
27.3046  107.91
27.3239  105.83
27.3433  105.602
27.3626  104.649
27.382  105.751
27.4013  106.868
27.4207  108.233
27.4401  106.352
27.4594  102.426
27.4788  103.242
27.4981  108.268
27.5175  116.071
27.5369  121.462
27.5562  131.812
27.5756  147.331
27.5949  174.38
27.6143  194.136
27.6336  199.12
27.653  161.174
27.6724  99.6474
27.6917  73.1549
27.7111  95.5815
27.7304  134.068
27.7498  179.064
27.7691  205.336
27.7885  236.898
27.8079  285.655
27.8272  320.669
27.8466  305.493
27.8659  299.598
27.8853  284.48
27.9047  269.627
27.924  240.981
27.9434  202.113
27.9627  145.774
27.9821  115.084
28.0014  88.2298
28.0208  59.984
28.0402  40.1358
28.0595  25.3406
28.0789  2.2542
28.0982  39.262
28.1176  90.0246
28.1369  88.4524
28.1563  70.538
28.1757  59.9474
28.195  52.1814
28.2144  50.6136
28.2337  55.4123
28.2531  57.2567
28.2725  50.9314
28.2918  46.3493
28.3112  47.6045
28.3305  46.5856
28.3499  46.9965
28.3692  45.3979
28.3886  45.6702
28.408  40.847
28.4273  36.5949
28.4467  34.4919
28.466  32.8388
28.4854  31.177
28.5047  32.4194
28.5241  37.1662
28.5435  40.3408
28.5628  41.1602
28.5822  37.6429
28.6015  36.7899
28.6209  39.0618
28.6403  43.1647
28.6596  46.0709
28.679  47.471
28.6983  47.0263
28.7177  44.9215
28.737  45.597
28.7564  44.215
28.7758  47.432
28.7951  51.99
28.8145  49.9639
28.8338  45.5685
28.8532  45.715
28.8725  55.3632
28.8919  56.675
28.9113  54.8489
28.9306  56.4249
28.95  61.5969
28.9693  67.8675
28.9887  73.698
29.008  82.7206
29.0274  88.0751
29.0468  108.509
29.0661  132.546
29.0855  148.79
29.1048  169.135
29.1242  192.32
29.1436  211.161
29.1629  214.663
29.1823  200.816
29.2016  173.71
29.221  148.684
29.2403  130.791
29.2597  104.008
29.2791  76.0578
29.2984  66.0732
29.3178  59.8134
29.3371  48.5239
29.3565  36.8072
29.3758  24.8458
29.3952  18.3982
29.4146  17.9017
29.4339  13.9788
29.4533  10.0933
29.4726  9.63007
29.492  1.93618
29.5114  -1.83707
29.5307  2.84241
29.5501  2.23953
29.5694  -0.491079
29.5888  -0.451378
29.6081  2.31899
29.6275  2.57737
29.6469  -3.4498
29.6662  -3.69964
29.6856  0.428123
29.7049  3.71719
29.7243  -1.43264