File: Courses/Advance project (MSE)/Mo2Ti2C3/XRD/data/P9  0001.dat
4.33375  6.02929
4.35315  6.44469
4.37254  7.14498
4.39194  6.4053
4.41133  6.31599
4.43073  4.4776
4.45013  4.91205
4.46952  4.31406
4.48892  3.58477
4.50832  4.19262
4.52771  4.1959
4.54711  4.65762
4.56651  2.36875
4.5859  1.35699
4.6053  0.253754
4.62469  0.907152
4.64409  1.57528
4.66349  -0.0733928
4.68288  -0.277191
4.70228  0.751841
4.72168  2.47191
4.74107  4.77175
4.76047  4.54522
4.77986  3.86794
4.79926  0.773749
4.81866  -0.94305
4.83805  0.789746
4.85745  0.530902
4.87685  0.592008
4.89624  0.00587648
4.91564  -0.0017909
4.93503  2.86049
4.95443  3.70444
4.97383  3.6467
4.99322  3.19965
5.01262  4.44522
5.03202  3.71607
5.05141  1.4262
5.07081  0.359888
5.09021  0.606729
5.1096  3.70186
5.129  4.70544
5.14839  4.66529
5.16779  2.07833
5.18719  0.400663
5.20658  2.02664
5.22598  0.736104
5.24538  -0.402139
5.26477  -1.65874
5.28417  -2.07863
5.30356  -3.26944
5.32296  -1.48123
5.34236  0.590489
5.36175  1.73697
5.38115  3.18797
5.40055  3.98347
5.41994  4.75382
5.43934  2.8738
5.45873  0.80294
5.47813  1.24923
5.49753  1.28829
5.51692  3.41818
5.53632  5.99466
5.55572  9.31324
5.57511  10.636
5.59451  8.01698
5.61391  4.85429
5.6333  1.96293
5.6527  1.62
5.67209  0.685397
5.69149  0.151409
5.71089  0.195345
5.73028  2.51819
5.74968  3.53056
5.76908  2.24018
5.78847  -0.295419
5.80787  -1.63953
5.82726  -2.21631
5.84666  -0.481041
5.86606  1.31318
5.88545  3.25761
5.90485  3.56751
5.92425  2.40033
5.94364  1.55323
5.96304  0.744621
5.98243  1.30921
6.00183  1.61152
6.02123  2.88727
6.04062  3.84035
6.06002  4.3446
6.07942  1.80571
6.09881  0.876443
6.11821  0.867036
6.13761  2.22196
6.157  3.05973
6.1764  5.70911
6.19579  6.00463
6.21519  5.30663
6.23459  3.23356
6.25398  3.66122
6.27338  3.34777
6.29278  2.74589
6.31217  2.48344
6.33157  2.68747
6.35096  4.86451
6.37036  2.62814
6.38976  0.932748
6.40915  0.694941
6.42855  3.13366
6.44795  3.9705
6.46734  2.14586
6.48674  1.07034
6.50613  -0.411935
6.52553  0.778996
6.54493  1.60295
6.56432  0.408033
6.58372  0.125135
6.60312  -0.512474
6.62251  -1.1648
6.64191  -1.70247
6.66131  -0.837259
6.6807  0.600772
6.7001  0.442176
6.71949  0.655331
6.73889  1.43093
6.75829  1.12645
6.77768  -0.0934535
6.79708  -0.306473
6.81648  1.50316
6.83587  2.37547
6.85527  1.16469
6.87466  -0.391898
6.89406  0.793811
6.91346  0.965818
6.93285  0.69858
6.95225  0.0720596
6.97165  1.5156
6.99104  2.23687
7.01044  3.09394
7.02983  2.02034
7.04923  1.33642
7.06863  2.29185
7.08802  2.35613
7.10742  0.00949446
7.12682  -1.84161
7.14621  0.511226
7.16561  1.85937
7.18501  1.24838
7.2044  0.841923
7.2238  1.26986
7.24319  1.86678
7.26259  2.02346
7.28199  2.08709
7.30138  2.53531
7.32078  2.91708
7.34018  4.19535
7.35957  4.00092
7.37897  2.85392
7.39836  2.96965
7.41776  1.48156
7.43716  1.29869
7.45655  -1.40325
7.47595  -1.33058
7.49535  -1.34539
7.51474  -0.622374
7.53414  0.503246
7.55353  1.17324
7.57293  0.521155
7.59233  -1.14895
7.61172  -1.48726
7.63112  -1.3426
7.65052  -1.22602
7.66991  -0.647371
7.68931  -1.0768
7.70871  -0.565992
7.7281  -0.61533
7.7475  0.996026
7.76689  2.60933
7.78629  2.47236
7.80569  0.495843
7.82508  -1.12639
7.84448  0.144808
7.86388  1.8052
7.88327  2.16828
7.90267  1.45094
7.92206  1.38945
7.94146  2.83301
7.96086  3.90723
7.98025  3.99716
7.99965  5.56115
8.01905  8.85723
8.03844  9.59617
8.05784  9.82987
8.07723  9.28271
8.09663  10.0456
8.11603  12.9607
8.13542  16.6682
8.15482  19.0663
8.17422  18.5793
8.19361  16.1812
8.21301  15.7476
8.23241  16.639
8.2518  17.9028
8.2712  19.7149
8.29059  20.8304
8.30999  22.9744
8.32939  25.9329
8.34878  29.6479
8.36818  32.9483
8.38758  36.076
8.40697  37.1063
8.42637  38.858
8.44576  39.7609
8.46516  41.513
8.48456  41.5317
8.50395  40.5722
8.52335  37.9225
8.54275  34.4893
8.56214  30.8468
8.58154  28.5577
8.60093  26.2122
8.62033  24.2745
8.63973  21.3587
8.65912  18.7057
8.67852  14.9823
8.69792  12.0331
8.71731  10.5262
8.73671  8.12164
8.75611  4.41364
8.7755  1.24558
8.7949  0.616221
8.81429  -0.179725
8.83369  -1.28882
8.85309  -0.568706
8.87248  1.70954
8.89188  3.44418
8.91128  4.6083
8.93067  7.20695
8.95007  11.51
8.96946  16.7149
8.98886  20.0712
9.00826  23.298
9.02765  29.0562
9.04705  30.8673
9.06645  26.1384
9.08584  17.1457
9.10524  12.1162
9.12463  16.3226
9.14403  18.8018
9.16343  17.9976
9.18282  13.1772
9.20222  12.3251
9.22162  11.2078
9.24101  9.93999
9.26041  9.71032
9.27981  8.77547
9.2992  6.28391
9.3186  3.5569
9.33799  2.90638
9.35739  3.86151
9.37679  3.44263
9.39618  -0.728865
9.41558  -4.24625
9.43498  -5.15179
9.45437  -4.75709
9.47377  -4.0017
9.49316  -3.71757
9.51256  -3.98255
9.53196  -3.79467
9.55135  -2.94943
9.57075  -2.08781
9.59015  -2.74762
9.60954  -3.04534
9.62894  -0.563125
9.64833  1.57868
9.66773  2.92394
9.68713  4.31962
9.70652  6.36646
9.72592  10.5627
9.74532  15.4665
9.76471  21.9721
9.78411  29.4572
9.80351  38.6005
9.8229  48.1459
9.8423  59.61
9.86169  70.0598
9.88109  82.1769
9.90049  92.2959
9.91988  101.895
9.93928  109.902
9.95868  114.54
9.97807  118.137
9.99747  117.851
10.0169  116.976
10.0363  111.818
10.0557  104.447
10.0751  95.1035
10.0944  84.5979
10.1138  75.0243
10.1332  65.5289
10.1526  55.9608
10.172  45.5412
10.1914  38.0541
10.2108  30.1013
10.2302  22.9971
10.2496  16.0321
10.269  12.1771
10.2884  9.17411
10.3078  6.95668
10.3272  5.56378
10.3466  4.58306
10.366  4.24101
10.3854  5.66049
10.4048  8.67716
10.4242  12.6163
10.4436  17.324
10.463  19.8477
10.4824  20.4597
10.5018  21.9969
10.5212  27.6392
10.5406  38.0307
10.56  47.711
10.5794  56.5791
10.5988  62.6897
10.6181  67.7823
10.6375  71.0869
10.6569  76.0193
10.6763  81.0544
10.6957  85.4616
10.7151  89.4162
10.7345  93.6031
10.7539  97.5393
10.7733  102.112
10.7927  107.373
10.8121  114.912
10.8315  124.111
10.8509  132.244
10.8703  139.279
10.8897  147.102
10.9091  155.03
10.9285  163.992
10.9479  171.292
10.9673  175.616
10.9867  177.601
11.0061  176.101
11.0255  175.657
11.0449  170.781
11.0643  163.156
11.0837  152.341
11.1031  141.467
11.1225  128.931
11.1418  116.173
11.1612  102.759
11.1806  89.5617
11.2  78.1161
11.2194  69.9916
11.2388  62.6027
11.2582  56.0909
11.2776  51.787
11.297  51.0395
11.3164  51.5698
11.3358  52.0307
11.3552  53.0317
11.3746  56.7762
11.394  62.7414
11.4134  68.2661
11.4328  74.7788
11.4522  83.2052
11.4716  91.7023
11.491  101.685
11.5104  112.35
11.5298  125.799
11.5492  139.108
11.5686  151.642
11.588  163.25
11.6074  174.367
11.6268  181.995
11.6462  183.428
11.6655  182.089
11.6849  178.341
11.7043  170.942
11.7237  160.721
11.7431  148.313
11.7625  133.602
11.7819  118.177
11.8013  103.725
11.8207  88.7461
11.8401  74.1439
11.8595  61.3517
11.8789  50.7594
11.8983  41.0845
11.9177  31.5429
11.9371  26.5692
11.9565  23.5215
11.9759  22.0551
11.9953  19.1883
12.0147  16.9268
12.0341  14.6611
12.0535  13.9815
12.0729  12.1103
12.0923  12.8357
12.1117  13.5198
12.1311  13.0085
12.1505  12.5277
12.1699  13.4113
12.1892  14.8094
12.2086  14.4416
12.228  13.6715
12.2474  13.4606
12.2668  12.6664
12.2862  10.4496
12.3056  6.84153
12.325  5.96537
12.3444  2.53494
12.3638  -0.296591
12.3832  -2.1831
12.4026  -2.80572
12.422  -3.55639
12.4414  -1.24933
12.4608  -0.706945
12.4802  0.904958
12.4996  1.23562
12.519  2.48174
12.5384  3.91728
12.5578  5.91445
12.5772  6.96566
12.5966  9.82295
12.616  12.0815
12.6354  16.2032
12.6548  19.82
12.6742  22.1378
12.6936  25.5366
12.7129  28.7643
12.7323  32.3012
12.7517  33.5584
12.7711  36.3433
12.7905  35.841
12.8099  37.1633
12.8293  37.7612
12.8487  38.873
12.8681  36.872
12.8875  34.7198
12.9069  32.8252
12.9263  30.6189
12.9457  30.0213
12.9651  29.2088
12.9845  27.6014
13.0039  23.9126
13.0233  22.4441
13.0427  22.3338
13.0621  24.1956
13.0815  25.9376
13.1009  28.2203
13.1203  29.7909
13.1397  33.8334
13.1591  38.8431
13.1785  44.594
13.1979  48.03
13.2173  52.2626
13.2366  56.4236
13.256  64.8333
13.2754  72.4216
13.2948  82.1477
13.3142  93.4452
13.3336  105.77
13.353  117.612
13.3724  130.193
13.3918  143.546
13.4112  157.621
13.4306  172.69
13.45  186.167
13.4694  198.881
13.4888  208.446
13.5082  215.018
13.5276  219.145
13.547  220.903
13.5664  220.752
13.5858  215.069
13.6052  205.217
13.6246  195.095
13.644  183.635
13.6634  171.187
13.6828  156.768
13.7022  143.371
13.7216  129.164
13.741  114.795
13.7603  101.016
13.7797  90.5321
13.7991  82.1424
13.8185  72.981
13.8379  66.0792
13.8573  59.8694
13.8767  57.762
13.8961  56.1383
13.9155  58.0431
13.9349  58.5368
13.9543  63.2461
13.9737  67.7448
13.9931  74.0916
14.0125  80.1115
14.0319  89.8044
14.0513  104.492
14.0707  123.985
14.0901  145.533
14.1095  168.567
14.1289  196.839
14.1483  228.36
14.1677  261.669
14.1871  289.38
14.2065  312.634
14.2259  327.328
14.2453  333.403
14.2647  333.747
14.284  334.441
14.3034  334.753
14.3228  335.68
14.3422  269.125
14.3616  253.662
14.381  256.513
14.4004  277.277
14.4198  398.594
14.4392  555.685
14.4586  776.845
14.478  831.122
14.4974  842.629
14.5168  859.339
14.5362  858.491
14.5556  710.365
14.575  569.353
14.5944  449.157
14.6138  290.356
14.6332  201.266
14.6526  145.236
14.672  126.245
14.6914  97.1604
14.7108  83.7425
14.7302  69.7121
14.7496  59.783
14.769  48.2995
14.7884  40.9315
14.8077  34.7643
14.8271  27.3496
14.8465  18.8699
14.8659  7.43598
14.8853  -0.446089
14.9047  0.27254
14.9241  5.12135
14.9435  8.75771
14.9629  9.86897
14.9823  8.00522
15.0017  6.29246
15.0211  4.12667
15.0405  3.52538
15.0599  5.01855
15.0793  6.25915
15.0987  6.44949
15.1181  3.98496
15.1375  3.13594
15.1569  1.68578
15.1763  1.50668
15.1957  -0.0413271
15.2151  -0.216856
15.2345  0.0169226
15.2539  -0.980128
15.2733  -1.99117
15.2927  -1.74292
15.3121  -1.68519
15.3314  -2.7079
15.3508  -3.6538
15.3702  -4.03572
15.3896  -3.92183
15.409  -3.13584
15.4284  -2.2826
15.4478  -0.783758
15.4672  0.441089
15.4866  0.856249
15.506  1.62976
15.5254  2.83212
15.5448  2.30788
15.5642  2.24865
15.5836  2.39622
15.603  4.40217
15.6224  5.34891
15.6418  6.99622
15.6612  7.16042
15.6806  7.24637
15.7  7.64124
15.7194  6.98627
15.7388  5.65159
15.7582  3.38566
15.7776  3.22642
15.797  4.4917
15.8164  3.61351
15.8358  1.46516
15.8551  -0.245902
15.8745  -0.682712
15.8939  -0.531603
15.9133  0.65696
15.9327  1.92297
15.9521  -0.862397
15.9715  -3.75169
15.9909  -3.45654
16.0103  -0.642781
16.0297  0.920779
16.0491  0.119006
16.0685  -0.531567
16.0879  2.05452
16.1073  4.14345
16.1267  6.7019
16.1461  9.5992
16.1655  12.3241
16.1849  15.0802
16.2043  20.2386
16.2237  26.4955
16.2431  31.1753
16.2625  33.7304
16.2819  35.7428
16.3013  40.2724
16.3207  44.2653
16.3401  48.6975
16.3595  49.8059
16.3788  51.6838
16.3982  53.3783
16.4176  59.1683
16.437  63.1387
16.4564  66.8783
16.4758  69.0254
16.4952  70.924
16.5146  79.5485
16.534  101.086
16.5534  121.938
16.5728  141.343
16.5922  153.789
16.6116  167.328
16.631  185.982
16.6504  227.074
16.6698  275.538
16.6892  328.321
16.7086  403.348
16.728  471.525
16.7474  532.414
16.7668  596.872
16.7862  633.525
16.8056  666.301
16.825  639.098
16.8444  593.806
16.8638  492.448
16.8832  437.681
16.9025  420.588
16.9219  369.844
16.9413  300.381
16.9607  233.815
16.9801  180.052
16.9995  146.518
17.0189  120.192
17.0383  101.114
17.0577  89.6567
17.0771  80.5309
17.0965  72.145
17.1159  63.4692
17.1353  58.7764
17.1547  58.6886
17.1741  59.1341
17.1935  56.9242
17.2129  53.7945
17.2323  49.6897
17.2517  46.6306
17.2711  42.3268
17.2905  38.5277
17.3099  35.615
17.3293  32.8319
17.3487  28.8364
17.3681  24.3648
17.3875  21.7844
17.4069  19.8652
17.4262  18.2755
17.4456  13.6319
17.465  7.63195
17.4844  5.93394
17.5038  11.502
17.5232  17.701
17.5426  19.3853
17.562  17.0366
17.5814  15.7983
17.6008  13.5958
17.6202  11.7155
17.6396  10.0673
17.659  8.528
17.6784  3.61443
17.6978  0.964757
17.7172  -0.849363
17.7366  -1.45511
17.756  -4.25419
17.7754  -3.89203
17.7948  -4.13771
17.8142  -5.15296
17.8336  -6.21584
17.853  -8.52196
17.8724  -8.89376
17.8918  -8.41133
17.9112  -5.44269
17.9306  -3.23561
17.9499  -0.930315
17.9693  1.78748
17.9887  6.01099
18.0081  9.99861
18.0275  13.3018
18.0469  16.5957
18.0663  21.31
18.0857  27.6874
18.1051  34.868
18.1245  40.4782
18.1439  44.5344
18.1633  48.8446
18.1827  54.6141
18.2021  60.8721
18.2215  67.1896
18.2409  73.6348
18.2603  80.6748
18.2797  89.2433
18.2991  97.8046
18.3185  105.891
18.3379  113.13
18.3573  120.581
18.3767  126.991
18.3961  134.351
18.4155  140.862
18.4349  148.579
18.4543  152.646
18.4736  159.012
18.493  164.544
18.5124  171.934
18.5318  176.746
18.5512  182.63
18.5706  188.462
18.59  193.658
18.6094  197.802
18.6288  200.964
18.6482  202.817
18.6676  206.759
18.687  209.599
18.7064  212.177
18.7258  212.454
18.7452  212.797
18.7646  213.96
18.784  214.161
18.8034  214.951
18.8228  214.928
18.8422  215.717
18.8616  214.971
18.881  215.7
18.9004  215.363
18.9198  214.787
18.9392  214.342
18.9586  212.571
18.978  210.89
18.9973  207.877
19.0167  205.794
19.0361  203.229
19.0555  199.696
19.0749  194.966
19.0943  189.463
19.1137  183.838
19.1331  177.946
19.1525  170.758
19.1719  163.209
19.1913  154.312
19.2107  144.537
19.2301  136.767
19.2495  130.845
19.2689  122.885
19.2883  113.717
19.3077  105.646
19.3271  98.4925
19.3465  91.2622
19.3659  84.0889
19.3853  77.4636
19.4047  70.5738
19.4241  63.6504
19.4435  58.4813
19.4629  54.0451
19.4823  49.3356
19.5017  45.3541
19.521  40.8788
19.5404  35.4278
19.5598  30.5439
19.5792  27.1778
19.5986  23.2808
19.618  18.8112
19.6374  16.029
19.6568  14.6895
19.6762  14.0734
19.6956  12.6472
19.715  10.4714
19.7344  8.85313
19.7538  9.06156
19.7732  10.2195
19.7926  8.46118
19.812  8.33507
19.8314  8.66744
19.8508  9.12303
19.8702  8.28267
19.8896  7.79804
19.909  8.27428
19.9284  8.49117
19.9478  8.57132
19.9672  7.15235
19.9866  5.56384
20.006  4.55906
20.0254  4.34986
20.0447  3.54004
20.0641  3.33846
20.0835  3.11596
20.1029  2.80207
20.1223  0.0424982
20.1417  -2.01525
20.1611  -2.8278
20.1805  -2.63807
20.1999  -2.74377
20.2193  -4.25285
20.2387  -4.33075
20.2581  -4.18283
20.2775  -5.02171
20.2969  -5.25397
20.3163  -5.43527
20.3357  -4.91317
20.3551  -4.0151
20.3745  -3.98956
20.3939  -3.52561
20.4133  -2.87571
20.4327  -2.03638
20.4521  -1.61269
20.4715  -2.58
20.4909  -1.54299
20.5103  -1.05842
20.5297  0.384902
20.5491  2.18933
20.5684  3.99239
20.5878  3.00563
20.6072  3.31322
20.6266  6.27913
20.646  10.2945
20.6654  11.2998
20.6848  10.9224
20.7042  11.3283
20.7236  11.3679
20.743  11.9156
20.7624  14.2104
20.7818  17.2249
20.8012  18.4966
20.8206  20.1167
20.84  21.2563
20.8594  22.421
20.8788  23.5909
20.8982  24.5163
20.9176  25.3224
20.937  26.1938
20.9564  27.0633
20.9758  27.4912
20.9952  28.1463
21.0146  27.9608
21.034  27.7657
21.0534  28.1201
21.0728  27.764
21.0921  26.4919
21.1115  26.4593
21.1309  27.8174
21.1503  29.7124
21.1697  28.1439
21.1891  26.4947
21.2085  24.7871
21.2279  23.3425
21.2473  20.8845
21.2667  21.0704
21.2861  21.7657
21.3055  20.0738
21.3249  16.5377
21.3443  12.7369
21.3637  12.0274
21.3831  11.0863
21.4025  9.76448
21.4219  7.92896
21.4413  4.87206
21.4607  3.72077
21.4801  3.23706
21.4995  2.31054
21.5189  1.03123
21.5383  -0.0145297
21.5577  0.0149409
21.5771  0.116582
21.5965  -0.546912
21.6158  -1.55089
21.6352  -2.68238
21.6546  -2.39735
21.674  0.896312
21.6934  3.49315
21.7128  5.91449
21.7322  6.64094
21.7516  6.21779
21.771  6.34272
21.7904  5.78422
21.8098  6.27984
21.8292  7.53417
21.8486  7.60487
21.868  7.06627
21.8874  8.88601
21.9068  13.0228
21.9262  13.4002
21.9456  12.7291
21.965  11.0042
21.9844  10.6482
22.0038  12.3371
22.0232  13.1269
22.0426  12.0524
22.062  11.817
22.0814  13.8239
22.1008  16.7587
22.1202  20.2536
22.1395  22.0479
22.1589  22.6987
22.1783  24.506
22.1977  28.648
22.2171  31.7762
22.2365  31.2309
22.2559  31.0369
22.2753  32.6739
22.2947  35.2971
22.3141  37.9696
22.3335  40.149
22.3529  41.8711
22.3723  43.2556
22.3917  44.2206
22.4111  45.9944
22.4305  47.782
22.4499  48.0541
22.4693  46.2161
22.4887  45.4582
22.5081  46.5169
22.5275  47.3779
22.5469  45.9449
22.5663  45.9387
22.5857  46.2624
22.6051  43.4592
22.6245  40.2332
22.6439  38.26
22.6632  36.0814
22.6826  33.3239
22.702  32.1065
22.7214  30.4977
22.7408  31.0468
22.7602  31.0193
22.7796  29.7389
22.799  27.755
22.8184  25.6777
22.8378  24.4506
22.8572  22.9976
22.8766  20.257
22.896  18.7265
22.9154  19.3289
22.9348  20.094
22.9542  21.4287
22.9736  21.7739
22.993  21.493
23.0124  19.3561
23.0318  18.4166
23.0512  20.644
23.0706  25.0008
23.09  28.549
23.1094  29.862
23.1288  31.6153
23.1482  34.1784
23.1676  36.9154
23.1869  38.9002
23.2063  41.6718
23.2257  45.0398
23.2451  45.9299
23.2645  47.1965
23.2839  48.5233
23.3033  49.887
23.3227  51.3556
23.3421  51.5717
23.3615  53.0969
23.3809  52.7532
23.4003  54.1313
23.4197  55.3658
23.4391  57.1163
23.4585  59.4468
23.4779  61.0975
23.4973  63.8162
23.5167  67.4538
23.5361  71.1447
23.5555  74.0597
23.5749  78.6483
23.5943  87.9711
23.6137  95.8758
23.6331  101.134
23.6525  111.828
23.6719  130.99
23.6913  163.643
23.7106  211.552
23.73  255.345
23.7494  304.107
23.7688  356.015
23.7882  407.649
23.8076  455.956
23.827  509.99
23.8464  543.724
23.8658  546.328
23.8852  521.811
23.9046  476.113
23.924  409.04
23.9434  336.02
23.9628  277.407
23.9822  240.756
24.0016  197.521
24.021  156.373
24.0404  107.784
24.0598  68.1513
24.0792  45.253
24.0986  33.9787
24.118  28.6307
24.1374  21.2432
24.1568  15.1616
24.1762  8.92105
24.1956  9.08334
24.215  8.11133
24.2343  7.50496
24.2537  7.54213
24.2731  9.44404
24.2925  6.31802
24.3119  3.36558
24.3313  1.88702
24.3507  2.90326
24.3701  2.62706
24.3895  1.69471
24.4089  1.38332
24.4283  0.0273044
24.4477  -0.297731
24.4671  -0.345073
24.4865  1.10731
24.5059  3.01776
24.5253  4.16152
24.5447  2.12071
24.5641  0.917168
24.5835  -0.407466
24.6029  1.31714
24.6223  2.50964
24.6417  4.52627
24.6611  4.8715
24.6805  3.13873
24.6999  -0.705486
24.7193  -2.34833
24.7387  -0.414881
24.758  1.71746
24.7774  3.00857
24.7968  4.24751
24.8162  4.90686
24.8356  4.04938
24.855  3.60396
24.8744  2.54284
24.8938  1.98876
24.9132  1.75435
24.9326  3.91651
24.952  3.98028
24.9714  3.25137
24.9908  0.68824
25.0102  0.147672
25.0296  2.13063
25.049  3.65361
25.0684  4.3819
25.0878  1.71749
25.1072  1.29052
25.1266  1.99784
25.146  2.31234
25.1654  1.13473
25.1848  -0.0416691
25.2042  0.220159
25.2236  0.328481
25.243  -0.786648
25.2624  -2.29376
25.2817  -1.70949
25.3011  -2.27286
25.3205  -0.215305
25.3399  0.198778
25.3593  -0.426836
25.3787  -1.43444
25.3981  -0.598215
25.4175  2.5283
25.4369  2.45382
25.4563  2.12031
25.4757  1.49513
25.4951  4.89491
25.5145  6.31152
25.5339  5.54582
25.5533  3.07441
25.5727  1.93702
25.5921  3.405
25.6115  3.86779
25.6309  3.43789
25.6503  1.76996
25.6697  0.740245
25.6891  1.52328
25.7085  0.0166767
25.7279  0.428502
25.7473  1.33153
25.7667  3.34168
25.7861  3.53821
25.8054  5.59604
25.8248  9.00842
25.8442  10.4226
25.8636  13.0232
25.883  14.3537
25.9024  14.6873
25.9218  15.5886
25.9412  17.8914
25.9606  20.0979
25.98  20.7243
25.9994  22.6215
26.0188  25.6834
26.0382  27.5105
26.0576  26.9645
26.077  29.1877
26.0964  31.1054
26.1158  34.022
26.1352  39.223
26.1546  43.7388
26.174  48.4473
26.1934  53.4785
26.2128  54.9487
26.2322  53.5131
26.2516  52.9969
26.271  55.6593
26.2904  52.033
26.3098  45.2259
26.3291  38.7437
26.3485  33.3777
26.3679  31.4293
26.3873  31.1311
26.4067  29.0503
26.4261  26.437
26.4455  23.3561
26.4649  25.8229
26.4843  25.9563
26.5037  24.933
26.5231  25.2134
26.5425  25.8917
26.5619  25.3776
26.5813  21.1139
26.6007  21.0059
26.6201  24.5355
26.6395  26.8178
26.6589  25.4967
26.6783  26.3297
26.6977  29.5551
26.7171  31.2676
26.7365  32.2353
26.7559  34.4791
26.7753  35.3748
26.7947  35.2604
26.8141  33.1482
26.8335  33.6613
26.8528  34.0255
26.8722  37.2926
26.8916  39.2541
26.911  42.1001
26.9304  44.3498
26.9498  46.8133
26.9692  47.0659
26.9886  49.3244
27.008  50.7496
27.0274  52.7867
27.0468  50.4979
27.0662  50.3656
27.0856  51.5116
27.105  56.8016
27.1244  59.7961
27.1438  62.2732
27.1632  62.2564
27.1826  62.391
27.202  61.1729
27.2214  62.9916
27.2408  66.5602
27.2602  69.7084
27.2796  68.2984
27.299  66.715
27.3184  67.5627
27.3378  71.8655
27.3572  69.9878
27.3765  67.8699
27.3959  65.5084
27.4153  68.7758
27.4347  71.6864
27.4541  72.7243
27.4735  71.5139
27.4929  70.1048
27.5123  67.7714
27.5317  64.7862
27.5511  59.6251
27.5705  59.7507
27.5899  60.3212
27.6093  54.1423
27.6287  46.1931
27.6481  42.9728
27.6675  49.848
27.6869  59.2991
27.7063  64.4431
27.7257  61.5041
27.7451  65.5563
27.7645  85.3694
27.7839  99.9607
27.8033  97.5787
27.8227  96.8619
27.8421  126.784
27.8615  159.703
27.8809  207.064
27.9002  272.506
27.9196  351.979
27.939  412.734
27.9584  491.568
27.9778  562.022
27.9972  620.006
28.0166  636.094
28.036  634.644
28.0554  585.786
28.0748  525.417
28.0942  466.422
28.1136  425.838
28.133  482.112
28.1524  497.242
28.1718  458.413
28.1912  379.87
28.2106  289.203
28.23  197.295
28.2494  141.692
28.2688  113.818
28.2882  87.1078
28.3076  66.0185
28.327  54.0996
28.3464  50.7515
28.3658  40.0851
28.3852  29.2881
28.4046  21.2664
28.4239  15.9232
28.4433  8.86068
28.4627  6.78802
28.4821  8.41762
28.5015  7.44041
28.5209  7.31098
28.5403  12.2094
28.5597  15.4451
28.5791  13.7102
28.5985  10.6172
28.6179  10.5503
28.6373  12.3202
28.6567  14.1607
28.6761  14.2202
28.6955  12.6208
28.7149  7.63012
28.7343  6.63096
28.7537  8.21795
28.7731  14.2149
28.7925  16.2832
28.8119  15.1906
28.8313  13.8381
28.8507  11.3926
28.8701  7.59437
28.8895  3.20656
28.9089  4.46727
28.9283  3.46371
28.9476  3.94485
28.967  1.67794
28.9864  -1.79559
29.0058  -5.25442
29.0252  -2.91207
29.0446  -1.59935
29.064  -0.534526
29.0834  -0.27329
29.1028  4.12741
29.1222  14.397
29.1416  13.1537
29.161  12.9597
29.1804  15.7976
29.1998  25.4394
29.2192  38.3647
29.2386  53.9601
29.258  71.6641
29.2774  85.992
29.2968  100.685
29.3162  116.032
29.3356  121.195
29.355  114.991
29.3744  102.27
29.3938  89.1636
29.4132  74.291
29.4326  51.7168
29.452  25.1723
29.4713  0.388537
29.4907  -7.56101
29.5101  -15.2085
29.5295  -13.2431
29.5489  -6.90449
29.5683  0.84026
29.5877  3.02685
29.6071  9.13022
29.6265  5.01459
29.6459  -6.27844