File: Courses/Advance project (MSE)/Mo2C/XRD/Mo2C.dat
5.0000 8650
5.0600 8868.25
5.1200 8118.65
5.1800 8305.43
5.2400 8230.8
5.3000 7900.46
5.3600 8784.58
5.4200 8667.38
5.4800 8814.17
5.5400 8930.72
5.6000 8644.56
5.6600 9433.76
5.7200 9392.62
5.7800 8757.19
5.8400 10245.5
5.9000 9724.89
5.9600 10340.6
6.0200 10967.6
6.0800 11148.1
6.1400 11298.1
6.2000 12574.2
6.2600 12862.1
6.3200 13516.5
6.3800 14994.7
6.4400 16921.6
6.5000 18465.1
6.5600 21138.3
6.6200 23330.2
6.6800 27488.8
6.7400 31632.8
6.8000 35720.6
6.8600 36474.9
6.9200 35690.7
6.9800 34929.7
7.0400 34856.1
7.1000 32776.6
7.1600 31817
7.2200 30471.4
7.2800 28860.1
7.3400 27684
7.4000 27341.2
7.4600 27025.7
7.5200 25653.5
7.5800 24577
7.6400 25015.6
7.7000 24416.7
7.7600 23958.5
7.8200 24455.6
7.8800 25257.2
7.9400 25213.2
8.0000 25564.3
8.0600 27258
8.1200 28068.4
8.1800 29694.8
8.2400 31955.1
8.3000 33907
8.3600 37716.3
8.4200 42477.1
8.4800 45802.9
8.5400 50342.6
8.6000 51107.5
8.6600 44093.7
8.7200 36760.6
8.7800 30028.9
8.8400 25086.2
8.9000 22880.8
8.9600 19989.1
9.0200 17999.2
9.0800 17669.7
9.1400 15468.3
9.2000 14607.2
9.2600 13158.5
9.3200 12950.6
9.3800 12041.3
9.4400 11764.5
9.5000 11052.8
9.5600 10718.4
9.6200 10584.8
9.6800 10313.7
9.7400 10077.8
9.8000 9175.92
9.8600 9232.99
9.9200 9305.59
9.9800 8813.92
10.0400 8773
10.1000 9039.99
10.1600 8621.23
10.2200 8517.95
10.2800 7872.98
10.3400 7953.16
10.4000 8326.04
10.4600 8491.58
10.5200 7462.56
10.5800 8086.25
10.6400 7962.18
10.7000 7687.32
10.7600 7358.02
10.8200 7117.84
10.8800 7980.53
10.9400 7617.67
11.0000 7153.02
11.0600 7678.67
11.1200 7235.2
11.1800 6663.49
11.2400 7288.64
11.3000 7115.27
11.3600 7075.93
11.4200 7176.22
11.4800 7055.88
11.5400 6533.78
11.6000 6726.88
11.6600 7020.81
11.7200 6587.39
11.7800 6457.11
11.8400 5994.92
11.9000 7079.61
11.9600 6663.34
12.0200 6569.31
12.0800 6448
12.1400 6681.12
12.2000 6264
12.2600 5468.33
12.3200 5855.04
12.3800 5705.74
12.4400 6135.65
12.5000 5890.05
12.5600 5797
12.6200 6078.46
12.6800 5732.05
12.7400 6085.55
12.8000 5436.6
12.8600 5768.18
12.9200 5697.6
12.9800 5883.2
13.0400 5467.24
13.1000 5950.02
13.1600 5517.04
13.2200 5600.67
13.2800 5449.4
13.3400 5399.53
13.4000 5993.34
13.4600 5187.28
13.5200 5168.35
13.5800 5335.51
13.6400 5189.9
13.7000 5000.31
13.7600 5075.09
13.8200 5117.03
13.8800 5082.93
13.9400 5106.93
14.0000 5132.87
14.0600 4878.62
14.1200 5386.52
14.1800 5118.11
14.2400 5164.88
14.3000 4603.15
14.3600 4882.67
14.4200 4440.99
14.4800 4878.23
14.5400 4568.19
14.6000 4597.61
14.6600 5109.24
14.7200 4279.64
14.7800 4413.48
14.8400 4666.79
14.9000 4295.69
14.9600 4723.31
15.0200 5003.19
15.0800 4882.26
15.1400 4244.39
15.2000 4757.99
15.2600 4539.99
15.3200 4997.28
15.3800 4498.75
15.4400 4752.56
15.5000 4602.64
15.5600 4353.64
15.6200 4776.39
15.6800 4432.78
15.7400 4881.59
15.8000 4560.68
15.8600 4559.2
15.9200 4626.09
15.9800 4772.09
16.0400 4453.29
16.1000 4566.53
16.1600 4459.09
16.2200 4778.07
16.2800 4339.25
16.3400 4841.27
16.4000 4621.88
16.4600 4602.37
16.5200 4779.78
16.5800 4563.55
16.6400 4627.28
16.7000 5039.95
16.7600 4900.15
16.8200 5334.7
16.8800 5188.25
16.9400 5150.22
17.0000 5074.35
17.0600 5536.29
17.1200 5617.48
17.1800 5650
17.2400 6087.44
17.3000 5990.65
17.3600 5784.44
17.4200 5672.9
17.4800 5791.01
17.5400 5936.59
17.6000 5494.82
17.6600 5922.63
17.7200 5696.91
17.7800 6100.27
17.8400 5433.44
17.9000 5878.01
17.9600 5979.87
18.0200 5937.48
18.0800 5904.03
18.1400 5974.34
18.2000 5390.81
18.2600 5991
18.3200 5535.38
18.3800 6008.93
18.4400 5988.53
18.5000 5991.2
18.5600 5903.28
18.6200 5643.6
18.6800 5660.57
18.7400 6059.49
18.8000 5993.68
18.8600 6324.8
18.9200 5719.21
18.9800 5695.25
19.0400 5663.65
19.1000 5851.61
19.1600 6149.85
19.2200 5709.52
19.2800 5436.29
19.3400 5955.47
19.4000 5944.39
19.4600 5942.39
19.5200 5947.42
19.5800 5955.37
19.6400 6069.77
19.7000 5754.08
19.7600 5904.3
19.8200 5687.49
19.8800 5508.25
19.9400 5323.81
20.0000 5865.13
20.0600 5715.3
20.1200 5998.37
20.1800 5914.9
20.2400 5728.86
20.3000 5388.86
20.3600 5681.89
20.4200 5514.98
20.4800 5575.12
20.5400 5803.66
20.6000 5543.01
20.6600 5904.86
20.7200 5985.54
20.7800 5716.67
20.8400 5708.71
20.9000 5336.96
20.9600 5898.4
21.0200 5363.17
21.0800 5606.78
21.1400 5566.65
21.2000 5602.34
21.2600 6077.78
21.3200 5708.77
21.3800 5740.24
21.4400 5664.96
21.5000 5623.48
21.5600 5634.35
21.6200 6188.22
21.6800 5611
21.7400 6010.6
21.8000 5951.02
21.8600 6015.64
21.9200 5980.48
21.9800 5924.88
22.0400 5879.03
22.1000 6330.31
22.1600 5906.39
22.2200 5771.45
22.2800 5751.01
22.3400 6129.31
22.4000 6549.78
22.4600 5824.23
22.5200 6079.01
22.5800 5828.59
22.6400 5762.19
22.7000 6099.85
22.7600 6112.87
22.8200 6244.82
22.8800 6322.53
22.9400 6141.54
23.0000 6389.88
23.0600 6117.45
23.1200 6404.19
23.1800 6196.62
23.2400 6675.68
23.3000 6520.32
23.3600 6494.65
23.4200 6724.45
23.4800 6515.78
23.5400 6792.62
23.6000 6640.34
23.6600 6073.72
23.7200 6984.18
23.7800 7095.27
23.8400 6961.36
23.9000 6941.28
23.9600 6762.51
24.0200 6800
24.0800 7009.09
24.1400 7697.74
24.2000 7280.58
24.2600 7695.69
24.3200 7828.81
24.3800 7873.77
24.4400 7652.36
24.5000 8138.26
24.5600 7985.23
24.6200 8541.67
24.6800 8089.95
24.7400 9226.02
24.8000 8977.64
24.8600 9058
24.9200 9413.84
24.9800 9670.42
25.0400 9610.01
25.1000 10557.6
25.1600 10700.2
25.2200 11233.9
25.2800 11258.4
25.3400 11483.9
25.4000 12597.8
25.4600 13271.6
25.5200 14234.5
25.5800 14826.5
25.6400 15905.9
25.7000 16104.4
25.7600 18125.7
25.8200 20215.8
25.8800 21713.1
25.9400 22940.8
26.0000 22240.3
26.0600 19652.8
26.1200 18915.5
26.1800 17208.4
26.2400 16095.2
26.3000 14579.9
26.3600 13730
26.4200 12526
26.4800 12058.9
26.5400 11434.5
26.6000 11354.3
26.6600 10603.3
26.7200 9673.27
26.7800 9614.4
26.8400 9895.39
26.9000 8834.41
26.9600 8850
27.0200 8860.17
27.0800 8253.17
27.1400 8683.33
27.2000 8521.16
27.2600 8015.1
27.3200 8346.19
27.3800 7792.89
27.4400 7667.07
27.5000 7610.77
27.5600 7280.67
27.6200 7334.47
27.6800 7524.19
27.7400 7000.88
27.8000 7100
27.8600 7085.48
27.9200 7193.38
27.9800 7199.85
28.0400 7061.35
28.1000 6581.96
28.1600 6901.98
28.2200 6582.12
28.2800 6680.27
28.3400 6721.18
28.4000 6526.55
28.4600 6519.1
28.5200 6402.48
28.5800 6589.94
28.6400 6450.51
28.7000 6222.14
28.7600 7028.19
28.8200 6712.01
28.8800 6010
28.9400 5811.86
29.0000 6608.52
29.0600 6194.58
29.1200 6238.34
29.1800 5925.87
29.2400 6480.84
29.3000 5814.47
29.3600 6157.98
29.4200 6006.5
29.4800 5968.32
29.5400 6130.48
29.6000 6048.33
29.6600 5847.37
29.7200 6018.57
29.7800 6100.02
29.8400 6175.08
29.9000 5727.05
29.9600 5900.05
30.0200 6088.26
30.0800 5674.44
30.1400 5700.73
30.2000 6041.31
30.2600 5514.48
30.3200 6022.59
30.3800 5916.52
30.4400 5854.1
30.5000 5562.81
30.5600 6088.81
30.6200 5689.24
30.6800 5688.95
30.7400 5691.16
30.8000 5567.88
30.8600 5983.33
30.9200 5814.03
30.9800 5911.15
31.0400 5870.34
31.1000 5929.69
31.1600 6095.19
31.2200 6114.74
31.2800 5606.95
31.3400 5762.27
31.4000 5863.28
31.4600 5646.67
31.5200 6354.48
31.5800 5538.85
31.6400 5844.02
31.7000 5966.67
31.7600 5753.1
31.8200 5901.09
31.8800 6094
31.9400 5404.86
32.0000 5927.53
32.0600 5951
32.1200 5854.55
32.1800 6211.47
32.2400 6027.12
32.3000 6447.39
32.3600 6251.65
32.4200 5784.65
32.4800 6031.26
32.5400 6269.14
32.6000 6161.81
32.6600 5809.53
32.7200 6243.34
32.7800 6136.29
32.8400 6176.14
32.9000 6150
32.9600 6609.55
33.0200 6077.15
33.0800 6141.8
33.1400 6626.04
33.2000 6990.39
33.2600 6619.45
33.3200 6535.19
33.3800 6334.82
33.4400 6228.3
33.5000 6250.55
33.5600 6363.66
33.6200 6517.91
33.6800 6753.79
33.7400 6830.48
33.8000 6997.02
33.8600 7042.14
33.9200 7019.37
33.9800 7070.25
34.0400 7521.6
34.1000 7693.71
34.1600 8049.71
34.2200 8331
34.2800 8419.78
34.3400 8437.62
34.4000 8959.48
34.4600 9490.2
34.5200 9723.04
34.5800 9357.35
34.6400 10339
34.7000 10547.7
34.7600 11481
34.8200 11106.1
34.8800 11465.3
34.9400 10966.1
35.0000 10117.7
35.0600 9901.58
35.1200 9360.42
35.1800 8011.32
35.2400 8422.8
35.3000 7962.18
35.3600 7242.94
35.4200 7772.03
35.4800 7401.26
35.5400 6587.14
35.6000 7216.55
35.6600 7347.25
35.7200 7182.92
35.7800 6883.73
35.8400 7234.82
35.9000 7219.91
35.9600 7936.83
36.0200 8783.52
36.0800 10173
36.1400 10493.9
36.2000 10467
36.2600 11418.5
36.3200 12605.2
36.3800 12344.1
36.4400 12981.8
36.5000 12540.4
36.5600 11847.4
36.6200 12489
36.6800 10400.1
36.7400 11167.4
36.8000 10484.9
36.8600 10683.3
36.9200 10884.8
36.9800 10346.3
37.0400 10482.5
37.1000 10510.8
37.1600 10710.8
37.2200 10874.1
37.2800 11867
37.3400 11149.3
37.4000 11165.5
37.4600 11327.7
37.5200 10638.4
37.5800 10934.2
37.6400 11102.7
37.7000 10629.2
37.7600 10722.5
37.8200 11900.8
37.8800 11598.6
37.9400 12684.4
38.0000 14133
38.0600 14775.1
38.1200 15526.4
38.1800 15641.5
38.2400 16092.9
38.3000 17251.8
38.3600 18513
38.4200 19823.5
38.4800 21069.3
38.5400 21878
38.6000 21144.9
38.6600 20274.9
38.7200 18825.8
38.7800 17265.8
38.8400 15947.2
38.9000 14917.7
38.9600 13751.1
39.0200 13037.3
39.0800 12375.7
39.1400 11623.9
39.2000 10817.7
39.2600 10219.8
39.3200 11110.6
39.3800 11155.1
39.4400 12843.5
39.5000 12776.4
39.5600 12443.9
39.6200 11312.4
39.6800 9844.83
39.7400 9322.2
39.8000 9561.41
39.8600 9536.99
39.9200 9524.68
39.9800 9480.41
40.0400 10519.6
40.1000 10630.6
40.1600 9937.79
40.2200 9971.04
40.2800 8875.1
40.3400 8076.51
40.4000 9087.72
40.4600 8761.81
40.5200 8735.52
40.5800 8757.63
40.6400 8596.69
40.7000 8490.47
40.7600 8578.78
40.8200 8397.74
40.8800 8713.93
40.9400 8666.67
41.0000 8504.44
41.0600 9268.4
41.1200 9492.85
41.1800 9321.41
41.2400 9264.94
41.3000 9102.3
41.3600 8453.4
41.4200 9133.85
41.4800 9410.23
41.5400 9541.09
41.6000 9357.67
41.6600 9927.63
41.7200 9850.45
41.7800 9867.26
41.8400 9820.72
41.9000 10409.1
41.9600 10595
42.0200 10662.2
42.0800 11112.6
42.1400 10909.1
42.2000 11896.5
42.2600 12318.1
42.3200 12950.1
42.3800 13840.3
42.4400 14002.6
42.5000 13409.5
42.5600 13531.2
42.6200 12959
42.6800 12687.6
42.7400 12189.4
42.8000 11460.9
42.8600 10937.8
42.9200 10374.1
42.9800 9873.97
43.0400 9542.45
43.1000 9012.31
43.1600 9009.43
43.2200 8961.51
43.2800 8543.02
43.3400 8447.95
43.4000 8521.68
43.4600 8036.35
43.5200 8167.77
43.5800 8218.34
43.6400 8110.06
43.7000 8353.3
43.7600 7967.05
43.8200 8117.62
43.8800 8810.57
43.9400 8425.24
44.0000 8455.22
44.0600 8471.91
44.1200 8071.77
44.1800 8171.83
44.2400 7798.12
44.3000 7926.84
44.3600 7612.83
44.4200 7600
44.4800 7410.54
44.5400 7360.94
44.6000 7178.53
44.6600 7127.9
44.7200 7605.59
44.7800 7538.76
44.8400 7530.11
44.9000 7651.21
44.9600 8353.88
45.0200 7839.43
45.0800 7927.13
45.1400 7903.48
45.2000 8117.91
45.2600 7389.12
45.3200 7890.15
45.3800 7206.73
45.4400 7314.74
45.5000 6951.75
45.5600 6933.33
45.6200 6810.71
45.6800 6654.71
45.7400 6527.33
45.8000 6447.52
45.8600 6228.85
45.9200 5998.43
45.9800 6111.02
46.0400 6264.95
46.1000 5831.55
46.1600 5817.93
46.2200 5752.74
46.2800 5856.22
46.3400 5933.39
46.4000 5494.2
46.4600 5444.39
46.5200 5725.79
46.5800 5723.94
46.6400 5716.03
46.7000 5731.53
46.7600 5346.15
46.8200 5751.66
46.8800 5324.2
46.9400 5760.19
47.0000 5507.36
47.0600 5224.69
47.1200 5261.43
47.1800 5357.93
47.2400 5832.89
47.3000 5574.61
47.3600 5649.77
47.4200 5269.53
47.4800 5336.71
47.5400 5349.58
47.6000 5426.12
47.6600 5139.78
47.7200 5365.93
47.7800 5342.41
47.8400 5519.77
47.9000 5671.7
47.9600 5315.1
48.0200 5326.5
48.0800 5047.04
48.1400 4978.35
48.2000 5001.12
48.2600 5445.94
48.3200 4975.31
48.3800 5122.22
48.4400 5301.48
48.5000 4991.45
48.5600 5334.71
48.6200 5000.89
48.6800 5138.06
48.7400 4926.28
48.8000 4810.66
48.8600 4684.6
48.9200 5214.79
48.9800 4961.63
49.0400 5195.15
49.1000 5216.55
49.1600 4968.83
49.2200 5208.33
49.2800 5222.67
49.3400 5012.01
49.4000 5130.51
49.4600 5100.03
49.5200 5455.57
49.5800 5288.31
49.6400 5743.72
49.7000 5341.82
49.7600 5668.68
49.8200 5446.83
49.8800 5367.57
49.9400 5758.98
50.0000 5212.7
50.0600 5696.32
50.1200 5615.02
50.1800 5538.97
50.2400 5685.47
50.3000 5882.84
50.3600 6063.69
50.4200 6420.03
50.4800 6329.89
50.5400 6702.22
50.6000 6480.15
50.6600 6985.45
50.7200 7045.51
50.7800 6972.74
50.8400 7325.53
50.9000 7399.64
50.9600 7815.77
51.0200 7401.39
51.0800 7831.44
51.1400 7711.64
51.2000 7562.75
51.2600 7799.97
51.3200 7263.74
51.3800 7510.56
51.4400 7036.91
51.5000 6368.99
51.5600 6810.81
51.6200 6633.33
51.6800 6415.59
51.7400 6061.42
51.8000 5644.55
51.8600 5983.23
51.9200 5806.89
51.9800 5374.53
52.0400 5592.74
52.1000 5671.02
52.1600 5534.19
52.2200 5995.66
52.2800 5950.79
52.3400 5578.74
52.4000 5364.33
52.4600 5084.75
52.5200 4708.67
52.5800 5120.13
52.6400 4783.33
52.7000 5069.62
52.7600 5020.6
52.8200 4843
52.8800 4783.84
52.9400 4746.68
53.0000 4896.78
53.0600 5369.39
53.1200 4950.77
53.1800 4945.37
53.2400 5017.65
53.3000 5039.45
53.3600 5092.33
53.4200 5185.92
53.4800 5391.98
53.5400 5158.07
53.6000 5349.71
53.6600 5259.63
53.7200 5242.69
53.7800 5208.01
53.8400 5158.34
53.9000 5783.44
53.9600 5232.85
54.0200 5666.74
54.0800 5574.73
54.1400 5708.82
54.2000 5522.66
54.2600 5752.06
54.3200 5850.72
54.3800 5803.26
54.4400 6126.07
54.5000 6163.59
54.5600 6555.96
54.6200 5953.66
54.6800 5796.03
54.7400 6066.19
54.8000 5878.82
54.8600 5754.24
54.9200 5987.31
54.9800 5459.26
55.0400 5703.26
55.1000 5329.21
55.1600 5371.02
55.2200 5474.62
55.2800 5288.91
55.3400 5335.41
55.4000 5222.82
55.4600 5169.4
55.5200 5090.24
55.5800 5312.63
55.6400 4792.56
55.7000 4678.37
55.7600 4767.77
55.8200 4860.05
55.8800 4740.43
55.9400 4779.28
56.0000 5130.44
56.0600 4906.67
56.1200 4958.07
56.1800 4785.4
56.2400 4595.71
56.3000 4872.55
56.3600 4769.7
56.4200 4849.53
56.4800 5102.26
56.5400 4809.15
56.6000 4813.51
56.6600 4516.01
56.7200 4844
56.7800 4762.76
56.8400 4657.4
56.9000 4550
56.9600 4822.06
57.0200 4571.99
57.0800 4559.36
57.1400 4422.96
57.2000 4228.56
57.2600 4584.66
57.3200 5049.5
57.3800 4913.72
57.4400 4497.99
57.5000 4830.94
57.5600 4733.51
57.6200 4687.26
57.6800 4590.4
57.7400 4996.22
57.8000 5172.83
57.8600 4593.01
57.9200 4503.35
57.9800 4904.16
58.0400 4857.21
58.1000 5027.58
58.1600 5097.2
58.2200 4643.15
58.2800 4680.33
58.3400 5012.95
58.4000 4666.16
58.4600 4697.58
58.5200 4774.14
58.5800 4822.74
58.6400 5066.69
58.7000 4676.69
58.7600 4883.87
58.8200 4977.14
58.8800 4630.69
58.9400 4636.27
59.0000 4708.88
59.0600 4960.17
59.1200 4521.02
59.1800 4643.57
59.2400 4778.25
59.3000 4694.64
59.3600 4796.02
59.4200 5032.16
59.4800 4653.7
59.5400 4774.92
59.6000 4654.18
59.6600 5085.85
59.7200 4960.96
59.7800 4938.37
59.8400 4620.15
59.9000 4748.87
59.9600 4961.93
60.0200 4669.78
60.0800 5027.66
60.1400 5096.68
60.2000 5047.48
60.2600 4895.23
60.3200 5041
60.3800 5159.76
60.4400 5226.27
60.5000 5245.86
60.5600 4937.19
60.6200 5284.97
60.6800 5116.06
60.7400 5226.01
60.8000 5431.54
60.8600 5356.78
60.9200 5706.23
60.9800 5588.75
61.0400 6316.92
61.1000 5766.9
61.1600 6133.1
61.2200 6332.42
61.2800 6127.07
61.3400 6318.04
61.4000 6360.52
61.4600 6416.67
61.5200 6343.33
61.5800 6872.62
61.6400 6915.37
61.7000 7179.53
61.7600 6804.45
61.8200 7178.08
61.8800 7414.11
61.9400 6959.2
62.0000 7327.66
62.0600 7865.19
62.1200 7785.78
62.1800 7327.69
62.2400 7330.42
62.3000 7413.35
62.3600 6989.39
62.4200 7218.16
62.4800 7220.83
62.5400 7352.41
62.6000 7309.84
62.6600 7055.97
62.7200 7019.47
62.7800 6605.4
62.8400 7130.35
62.9000 6815.61
62.9600 6535.66
63.0200 6472.08
63.0800 6528.01
63.1400 6638.03
63.2000 6521.98
63.2600 6289.89
63.3200 6502.8
63.3800 6329.31
63.4400 6421.94
63.5000 6557.61
63.5600 6339.51
63.6200 6016.2
63.6800 5787.09
63.7400 5566.85
63.8000 5366.5
63.8600 5567.69
63.9200 5193.88
63.9800 5587.7
64.0400 5439.08
64.1000 5429.01
64.1600 5460.79
64.2200 5511.18
64.2800 5778.38
64.3400 5883.33
64.4000 5967.02
64.4600 6524.77
64.5200 6570.87
64.5800 7145.62
64.6400 7379.69
64.7000 7830.2
64.7600 8341.18
64.8200 8977.65
64.8800 9323.94
64.9400 10096
65.0000 10112.7
65.0600 9727.55
65.1200 9326.16
65.1800 9567.98
65.2400 9337.15
65.3000 8415.43
65.3600 8718.35
65.4200 8708.58
65.4800 7901.14
65.5400 7412.7
65.6000 7801.03
65.6600 7416.08
65.7200 7595.5
65.7800 7077.97
65.8400 6637.08
65.9000 6483.07
65.9600 6394.48
66.0200 5894.44
66.0800 5750.17
66.1400 5683.97
66.2000 5541.1
66.2600 5222.42
66.3200 4901.45
66.3800 5008.08
66.4400 4835.62
66.5000 4911.97
66.5600 4351.16
66.6200 4768.85
66.6800 4547.48
66.7400 4633.99
66.8000 4541.19
66.8600 4437.66
66.9200 4215.48
66.9800 4519.44
67.0400 4380.52
67.1000 4237.95
67.1600 4163.76
67.2200 4542.67
67.2800 4478.66
67.3400 4503.41
67.4000 4226.54
67.4600 4229.95
67.5200 4464.15
67.5800 4472.22
67.6400 4423.01
67.7000 4233.49
67.7600 4393.32
67.8200 4633.35
67.8800 4623.23
67.9400 4299.68
68.0000 4456.39
68.0600 4299.24
68.1200 4446.7
68.1800 4803.29
68.2400 4489.65
68.3000 4349.17
68.3600 4383.33
68.4200 4413.73
68.4800 4972.04
68.5400 4458.65
68.6000 4436.98
68.6600 4485.4
68.7200 4679.66
68.7800 4460.18
68.8400 4568.5
68.9000 4552.77
68.9600 4783.33
69.0200 4571.37
69.0800 4776.86
69.1400 4548.27
69.2000 4897.77
69.2600 4863.44
69.3200 5097.77
69.3800 4759.2
69.4400 4681.35
69.5000 5165.69
69.5600 5507.44
69.6200 5681.05
69.6800 5324.54
69.7400 5302.34
69.8000 5685.98
69.8600 4837.43
69.9200 5265.44
69.9800 5300
70.0400 5131.2
70.1000 5152.91
70.1600 5695.46
70.2200 5326.17
70.2800 5304.14
70.3400 5466.93
70.4000 5839.67
70.4600 5729.63
70.5200 5832.98
70.5800 5525.98
70.6400 5813
70.7000 5416.49
70.7600 5696.68
70.8200 5859.99
70.8800 5640.1
70.9400 5883.33
71.0000 5690.3
71.0600 5490.17
71.1200 5979.81
71.1800 5820.44
71.2400 5782.61
71.3000 6199.72
71.3600 6020.71
71.4200 5304.14
71.4800 5481.95
71.5400 5721.71
71.6000 5455.88
71.6600 5294.19
71.7200 5153.5
71.7800 5456.29
71.8400 5222.93
71.9000 5165.94
71.9600 5301.59
72.0200 5148.95
72.0800 5100
72.1400 5017.31
72.2000 4819.55
72.2600 4752.52
72.3200 4553.55
72.3800 4925.12
72.4400 4902.31
72.5000 4858.31
72.5600 4835.85
72.6200 4704.9
72.6800 4901.81
72.7400 4782.73
72.8000 4532.62
72.8600 4954.26
72.9200 4918.76
72.9800 4816.67
73.0400 5233.33
73.1000 4988.98
73.1600 5255.79
73.2200 5059.1
73.2800 5475.93
73.3400 5103.71
73.4000 5340.43
73.4600 5335.07
73.5200 5444.56
73.5800 5340.4
73.6400 5430.67
73.7000 5236.5
73.7600 5231.79
73.8200 5055.33
73.8800 5181.01
73.9400 5085.7
74.0000 5019.08
74.0600 5216.94
74.1200 5146.01
74.1800 5276.9
74.2400 5252.65
74.3000 5239.82
74.3600 4905.34
74.4200 4844.21
74.4800 4788.83
74.5400 5070.56
74.6000 4864.52
74.6600 5225.8
74.7200 5479.58
74.7800 5233.33
74.8400 5153.93
74.9000 5107.49
74.9600 5293.03
75.0200 4956.6
75.0800 5106.18
75.1400 4764.15
75.2000 4990.57
75.2600 4874.6
75.3200 5064.34
75.3800 5418.18
75.4400 5385.55
75.5000 5255.43
75.5600 5366.91
75.6200 5287.86
75.6800 5651.29
75.7400 5472.66
75.8000 5231.29
75.8600 4968.74
75.9200 5584.6
75.9800 5224.69
76.0400 5199.69
76.1000 5272.24
76.1600 5831.14
76.2200 5162.43
76.2800 5622.49
76.3400 5316.67
76.4000 5649.4
76.4600 5209.62
76.5200 4924.09
76.5800 5325.31
76.6400 5045.65
76.7000 5095.36
76.7600 5070.04
76.8200 5455.95
76.8800 5369.96
76.9400 5184.68
77.0000 5043.95
77.0600 5077.24
77.1200 4941.31
77.1800 4819.19
77.2400 5108.71
77.3000 5088.85
77.3600 5196.03
77.4200 4581.81
77.4800 5084.78
77.5400 5085.06
77.6000 4921.98
77.6600 4878.77
77.7200 5302.65
77.7800 4980.43
77.8400 5077.35
77.9000 4853.91
77.9600 5068.78
78.0200 5316.2
78.0800 5496.63
78.1400 5062.03
78.2000 5238.11
78.2600 5196.14
78.3200 5273.05
78.3800 5321.81
78.4400 4827.02
78.5000 5081.22
78.5600 4667.63
78.6200 4683.33
78.6800 4612.15
78.7400 4657.37
78.8000 4511.15
78.8600 4536.61
78.9200 4579.59
78.9800 4294.54
79.0400 4252.12
79.1000 4433.4
79.1600 4110.97
79.2200 4214.75
79.2800 4035.83
79.3400 4223.99
79.4000 3969.22
79.4600 3893.64
79.5200 4318.84
79.5800 3998.61
79.6400 3908.16
79.7000 3985.66
79.7600 4066.69
79.8200 4227.34
79.8800 3930.84
79.9400 4411.19
80.0000 4068.47
80.0600 4063.17
80.1200 4488.02
80.1800 4106.97
80.2400 4255.68
80.3000 4082.6
80.3600 4485.35
80.4200 4434.77
80.4800 4384.29
80.5400 4159.41
80.6000 4509.77
80.6600 4373.37
80.7200 4669.96
80.7800 4723.56
80.8400 4963.5
80.9000 4246.49
80.9600 4505.66
81.0200 4554.01
81.0800 4305.52
81.1400 4300
81.2000 3901.98
81.2600 4480.83
81.3200 4480.93
81.3800 4089.91
81.4400 4324.48
81.5000 4252.11
81.5600 4118.69
81.6200 3948.51
81.6800 4077.17
81.7400 3989.08
81.8000 3804.68
81.8600 3650.03
81.9200 3627.15
81.9800 4132
82.0400 3886.83
82.1000 4108.45
82.1600 3815.62
82.2200 3794.13
82.2800 3931.26
82.3400 3836.99
82.4000 4028.49
82.4600 3899.45
82.5200 3895.2
82.5800 3908.16
82.6400 3850
82.7000 3639.27
82.7600 3572.31
82.8200 4002.95
82.8800 3766.67
82.9400 3782.89
83.0000 3852.72
83.0600 3662.72
83.1200 3701.01
83.1800 3594.05
83.2400 3720.72
83.3000 3629.9
83.3600 3850
83.4200 3320.92
83.4800 3798.47
83.5400 3469.25
83.6000 3646.11
83.6600 3666.67
83.7200 3909.37
83.7800 3375.24
83.8400 3665.06
83.9000 3866.77
83.9600 3630.16
84.0200 3724.66
84.0800 3865.19
84.1400 3593.08
84.2000 3414.83
84.2600 3605.01
84.3200 3668.97
84.3800 3550
84.4400 3797.63
84.5000 3366.86
84.5600 3386.59
84.6200 3795.72
84.6800 3221.3
84.7400 3693.1
84.8000 3477.46
84.8600 3796.92
84.9200 3682.72
84.9800 3631.08
85.0400 3772.64
85.1000 3385.64
85.1600 3676.59
85.2200 3770.11
85.2800 3365.35
85.3400 3509.34
85.4000 3381.86
85.4600 3718.83
85.5200 3640.35
85.5800 3641.89
85.6400 3462.77
85.7000 3398.16
85.7600 3181.43
85.8200 3270.61
85.8800 3245.82
85.9400 3418.71
86.0000 3641.89
86.0600 3786.03
86.1200 3525.11
86.1800 3452.34
86.2400 3596.28
86.3000 3422.34
86.3600 3687.86
86.4200 3519.64
86.4800 3561.47
86.5400 3719.31
86.6000 3409.29
86.6600 3674.12
86.7200 3413.11
86.7800 3726.56
86.8400 3636.18
86.9000 3721.52
86.9600 3647.08
87.0200 3649.01
87.0800 3837.24
87.1400 3717.72
87.2000 3620.78
87.2600 3801.95
87.3200 3777.82
87.3800 3608.91
87.4400 3518.61
87.5000 3808.18
87.5600 3750.74
87.6200 3545.41
87.6800 3462.8
87.7400 3679.47
87.8000 3948.59
87.8600 3557.01
87.9200 3616.67
87.9800 3363.52
88.0400 3638.41
88.1000 3557
88.1600 3391.83
88.2200 3541.85
88.2800 3623.64
88.3400 3664.22
88.4000 3676.66
88.4600 3388.31
88.5200 3506.91
88.5800 3734.27
88.6400 3495.09
88.7000 3523.51
88.7600 3689.1
88.8200 3702.85
88.8800 3918.34
88.9400 3870.24
89.0000 3453.72
89.0600 3438.61
89.1200 4205.32
89.1800 3802.62
89.2400 3735.01
89.3000 3752.02
89.3600 3861.5
89.4200 3622.78
89.4800 3975.52
89.5400 3626.9
89.6000 3687.2
89.6600 3791.76
89.7200 3958.63
89.7800 4066.73
89.8400 3941.67
89.9000 4022.88
89.9600 3856.42
90.0000 4293.85